"success","timeout","failed_images","failed_audio","failed_video","trial_type","trial_index","plugin_version","time_elapsed","rt","stimulus","response","name","condition","race","gender","image","question","expression","answer","correct","behaviorType","behavior","question_type","correct_answers","participant_response","nameGuesses","nameAnswer","behaviorAnswer"
"true","false","[]","[]","[]","preload","0","2.0.0","9415","","","","","","","","","","","","","","","","","","","",""
"","","","","","html-keyboard-response","1","2.0.0","17427","8010","
      <div style=""font-size:22px;line-height: 1.5; max-width: 1300px; margin: 5%; text-align: center;"">
      <p>During this experiment, you will be shown photographs of different identities, and,
      for some, their associated identity information (e.g., description of their behavior).</p>
      <p>Please try to remember all faces and identity information that has been presented.</p>
      <p>Each identity is equally important to remember, and
      you will be tested on your memory at the end of the experiment.</p>
      <p><b>When you are ready, press any key to begin.</b></p>
    </div>
  "," ","","","","","","","","","","","","","","","","",""
"","","","","","html-keyboard-response","2","2.0.0","19433","null","<p style=""font-size:100px"">Emma</p>","null","Emma","control","asian","Female","","","","","","","","","","","","",""
"","","","","","image-keyboard-response","3","2.0.0","22438","null","./images/AF-205.jpg","null","Emma","","","","./images/AF-205.jpg","","","","","","","","","","","",""
"","","","","","html-keyboard-response","4","2.0.0","27444","null","<p style=""font-size:100px"">Emma</p>","null","","","","","","","","","","","","","","","","",""
"","","","","","html-keyboard-response","5","2.0.0","33026","5580","<p>how would you rate their attractiveness? (Rate between 1-7)<p/>
            <p>1-very unattractive; 7-very attractive<p/>","4","","","","","","attractive_rating","","","","","","","","","","",""
"","","","","","html-keyboard-response","6","2.0.0","36031","null","<p style=""font-size:100px"">9 - 0 = ?</p>","null","","","","","","","9 - 0","9","false","","","","","","","",""
"","","","","","html-keyboard-response","7","2.0.0","36537","null","<p style=""font-size:100px"">9 - 0 = 9</p><p style=""font-size:100px"">Wrong.</p>","null","","","","","","","","","","","","","","","","",""
"","","","","","html-keyboard-response","8","2.0.0","38544","null","<p style=""font-size:100px"">William</p>","null","William","Face-first","asian","Male","","","","","","neutral","","","","","","",""
"","","","","","image-keyboard-response","9","2.0.0","41548","null","./images/AM-202.jpg","null","William","Face-first","","","./images/AM-202.jpg","","","","","neutral","","","","","","",""
"","","","","","html-keyboard-response","10","2.0.0","46550","null","<p style=""font-size:40px; line-height:1.5; margin: 0 50px 0 50px"">William schedules a monthly check-up with the dentist to miantian oral health. </p>","null","William","Face-first","","","","","","","","neutral","schedules a monthly check-up with the dentist to miantian oral health.","","","","","",""
"","","","","","html-keyboard-response","11","2.0.0","54055","7503","<p >how would you rate their behavior? (Rate between 1-7)<p/>
            <p>w1-very untrustworthy, 7-very trustworthy<p/>","6","","","","","","trustworthy_rating","","","","","","","","","","",""
"","","","","","html-keyboard-response","12","2.0.0","55896","1841","<p style=""font-size:100px"">5 - 5 = ?</p>","0","","","","","","","5 - 5","0","true","","","","","","","",""
"","","","","","html-keyboard-response","13","2.0.0","57558","null","<p style=""font-size:100px"">5 - 5 = 0</p><p style=""font-size:100px"">Correct!</p>","null","","","","","","","","","","","","","","","","",""
"","","","","","html-keyboard-response","14","2.0.0","59565","null","<p style=""font-size:100px"">Katherine</p>","null","Katherine","Bio-first","","","","","","","","positive","","","","","","",""
"","","","","","html-keyboard-response","15","2.0.0","64572","null","<p style=""font-size:40px;line-height:1.5; margin: 0 50px 0 50px"">Katherine sends thoughtful thank-you notes to coworkers for their support on projects. </p>","null","Katherine","Bio-first","","","","","","","","positive","sends thoughtful thank-you notes to coworkers for their support on projects.","","","","","",""
"","","","","","image-keyboard-response","16","2.0.0","67579","null","./images/AF-255.jpg","null","Katherine","Bio-first","","","./images/AF-255.jpg","","","","","positive","","","","","","",""
"","","","","","html-keyboard-response","17","2.0.0","70898","3318","<p>how would you rate their behavior? (Rate between 1-7)<p/>
            <p>1-very trustworthy, 7-very untrustworthy<p/>","7","","","","","","trustworthy_rating","","","","","","","","","","",""
"","","","","","html-keyboard-response","18","2.0.0","72651","1752","<p style=""font-size:100px"">5 + 2  = ?</p>","7","","","","","","","5 + 2 ","7","true","","","","","","","",""
"","","","","","html-keyboard-response","19","2.0.0","74406","null","<p style=""font-size:100px"">5 + 2  = 7</p><p style=""font-size:100px"">Correct!</p>","null","","","","","","","","","","","","","","","","",""
"","","","","","html-keyboard-response","20","2.0.0","76411","null","<p style=""font-size:100px"">David</p>","null","David","Face-first","white","Male","","","","","","positive","","","","","","",""
"","","","","","image-keyboard-response","21","2.0.0","79418","null","./images/WM-031.jpg","null","David","Face-first","","","./images/WM-031.jpg","","","","","positive","","","","","","",""
"","","","","","html-keyboard-response","22","2.0.0","84421","null","<p style=""font-size:40px; line-height:1.5; margin: 0 50px 0 50px"">David prepares hearty dinners for family when someone feels under the weather. </p>","null","David","Face-first","","","","","","","","positive","prepares hearty dinners for family when someone feels under the weather.","","","","","",""
"","","","","","html-keyboard-response","23","2.0.0","86643","2221","<p >how would you rate their behavior? (Rate between 1-7)<p/>
            <p>w1-very untrustworthy, 7-very trustworthy<p/>","7","","","","","","trustworthy_rating","","","","","","","","","","",""
"","","","","","html-keyboard-response","24","2.0.0","88249","1605","<p style=""font-size:100px"">7 - 4 = ?</p>","3","","","","","","","7 - 4","3","true","","","","","","","",""
"","","","","","html-keyboard-response","25","2.0.0","90150","null","<p style=""font-size:100px"">7 - 4 = 3</p><p style=""font-size:100px"">Correct!</p>","null","","","","","","","","","","","","","","","","",""
"","","","","","html-keyboard-response","26","2.0.0","92157","null","<p style=""font-size:100px"">Noah</p>","null","Noah","Bio-first","","","","","","","","negative","","","","","","",""
"","","","","","html-keyboard-response","27","2.0.0","97163","null","<p style=""font-size:40px;line-height:1.5; margin: 0 50px 0 50px"">Noah consistently shows up late to group meetings, making others wiat. </p>","null","Noah","Bio-first","","","","","","","","negative","consistently shows up late to group meetings, making others wiat.","","","","","",""
"","","","","","image-keyboard-response","28","2.0.0","100170","null","./images/AM-252.jpg","null","Noah","Bio-first","","","./images/AM-252.jpg","","","","","negative","","","","","","",""
"","","","","","html-keyboard-response","29","2.0.0","102900","2728","<p>how would you rate their behavior? (Rate between 1-7)<p/>
            <p>1-very trustworthy, 7-very untrustworthy<p/>","7","","","","","","trustworthy_rating","","","","","","","","","","",""
"","","","","","html-keyboard-response","30","2.0.0","104620","1720","<p style=""font-size:100px"">5 + 1  = ?</p>","6","","","","","","","5 + 1 ","6","true","","","","","","","",""
"","","","","","html-keyboard-response","31","2.0.0","106403","null","<p style=""font-size:100px"">5 + 1  = 6</p><p style=""font-size:100px"">Correct!</p>","null","","","","","","","","","","","","","","","","",""
"","","","","","html-keyboard-response","32","2.0.0","108409","null","<p style=""font-size:100px"">Daniel</p>","null","Daniel","control","asian","Male","","","","","","","","","","","","",""
"","","","","","image-keyboard-response","33","2.0.0","111417","null","./images/AM-211.jpg","null","Daniel","","","","./images/AM-211.jpg","","","","","","","","","","","",""
"","","","","","html-keyboard-response","34","2.0.0","116422","null","<p style=""font-size:100px"">Daniel</p>","null","","","","","","","","","","","","","","","","",""
"","","","","","html-keyboard-response","35","2.0.0","119806","3383","<p>how would you rate their attractiveness? (Rate between 1-7)<p/>
            <p>1-very unattractive; 7-very attractive<p/>","2","","","","","","attractive_rating","","","","","","","","","","",""
"","","","","","html-keyboard-response","36","2.0.0","121629","1822","<p style=""font-size:100px"">6 - 0 = ?</p>","6","","","","","","","6 - 0","6","true","","","","","","","",""
"","","","","","html-keyboard-response","37","2.0.0","123314","null","<p style=""font-size:100px"">6 - 0 = 6</p><p style=""font-size:100px"">Correct!</p>","null","","","","","","","","","","","","","","","","",""
"","","","","","html-keyboard-response","38","2.0.0","125320","null","<p style=""font-size:100px"">Maria</p>","null","Maria","Bio-first","","","","","","","","positive","","","","","","",""
"","","","","","html-keyboard-response","39","2.0.0","130327","null","<p style=""font-size:40px;line-height:1.5; margin: 0 50px 0 50px"">Maria offers up a bus seat to someone standing, without being asked. </p>","null","Maria","Bio-first","","","","","","","","positive","offers up a bus seat to someone standing, without being asked.","","","","","",""
"","","","","","image-keyboard-response","40","2.0.0","133330","null","./images/LF-251.jpg","null","Maria","Bio-first","","","./images/LF-251.jpg","","","","","positive","","","","","","",""
"","","","","","html-keyboard-response","41","2.0.0","135284","1953","<p>how would you rate their behavior? (Rate between 1-7)<p/>
            <p>1-very trustworthy, 7-very untrustworthy<p/>","1","","","","","","trustworthy_rating","","","","","","","","","","",""
"","","","","","html-keyboard-response","42","2.0.0","137071","1786","<p style=""font-size:100px"">7 + 2  = ?</p>","9","","","","","","","7 + 2 ","9","true","","","","","","","",""
"","","","","","html-keyboard-response","43","2.0.0","138791","null","<p style=""font-size:100px"">7 + 2  = 9</p><p style=""font-size:100px"">Correct!</p>","null","","","","","","","","","","","","","","","","",""
"","","","","","html-keyboard-response","44","2.0.0","140798","null","<p style=""font-size:100px"">Alexander</p>","null","Alexander","Face-first","white","Male","","","","","","neutral","","","","","","",""
"","","","","","image-keyboard-response","45","2.0.0","143806","null","./images/WM-004.jpg","null","Alexander","Face-first","","","./images/WM-004.jpg","","","","","neutral","","","","","","",""
"","","","","","html-keyboard-response","46","2.0.0","148811","null","<p style=""font-size:40px; line-height:1.5; margin: 0 50px 0 50px"">Alexander goes grocery shopping weekly to stock up on fresh ingredients. </p>","null","Alexander","Face-first","","","","","","","","neutral","goes grocery shopping weekly to stock up on fresh ingredients.","","","","","",""
"","","","","","html-keyboard-response","47","2.0.0","151492","2680","<p >how would you rate their behavior? (Rate between 1-7)<p/>
            <p>w1-very untrustworthy, 7-very trustworthy<p/>","7","","","","","","trustworthy_rating","","","","","","","","","","",""
"","","","","","html-keyboard-response","48","2.0.0","153483","1990","<p style=""font-size:100px"">6 + 2  = ?</p>","8","","","","","","","6 + 2 ","8","true","","","","","","","",""
"","","","","","html-keyboard-response","49","2.0.0","154998","null","<p style=""font-size:100px"">6 + 2  = 8</p><p style=""font-size:100px"">Correct!</p>","null","","","","","","","","","","","","","","","","",""
"","","","","","html-keyboard-response","50","2.0.0","157004","null","<p style=""font-size:100px"">Addison</p>","null","Addison","control","latino","Female","","","","","","","","","","","","",""
"","","","","","image-keyboard-response","51","2.0.0","160009","null","./images/LF-243.jpg","null","Addison","","","","./images/LF-243.jpg","","","","","","","","","","","",""
"","","","","","html-keyboard-response","52","2.0.0","165015","null","<p style=""font-size:100px"">Addison</p>","null","","","","","","","","","","","","","","","","",""
"","","","","","html-keyboard-response","53","2.0.0","167503","2479","<p>how would you rate their attractiveness? (Rate between 1-7)<p/>
            <p>1-very unattractive; 7-very attractive<p/>","3","","","","","","attractive_rating","","","","","","","","","","",""
"","","","","","html-keyboard-response","54","2.0.0","168995","1492","<p style=""font-size:100px"">5 - 5 = ?</p>","0","","","","","","","5 - 5","0","true","","","","","","","",""
"","","","","","html-keyboard-response","55","2.0.0","171005","null","<p style=""font-size:100px"">5 - 5 = 0</p><p style=""font-size:100px"">Correct!</p>","null","","","","","","","","","","","","","","","","",""
"","","","","","html-keyboard-response","56","2.0.0","173011","null","<p style=""font-size:100px"">Joseph</p>","null","Joseph","Bio-first","","","","","","","","neutral","","","","","","",""
"","","","","","html-keyboard-response","57","2.0.0","178018","null","<p style=""font-size:40px;line-height:1.5; margin: 0 50px 0 50px"">Joseph spends an hour rearranging living room furniture to refresh the space. </p>","null","Joseph","Bio-first","","","","","","","","neutral","spends an hour rearranging living room furniture to refresh the space.","","","","","",""
"","","","","","image-keyboard-response","58","2.0.0","181026","null","./images/AM-201.jpg","null","Joseph","Bio-first","","","./images/AM-201.jpg","","","","","neutral","","","","","","",""
"","","","","","html-keyboard-response","59","2.0.0","183614","2587","<p>how would you rate their behavior? (Rate between 1-7)<p/>
            <p>1-very trustworthy, 7-very untrustworthy<p/>","2","","","","","","trustworthy_rating","","","","","","","","","","",""
"","","","","","html-keyboard-response","60","2.0.0","185254","1639","<p style=""font-size:100px"">8 - 0 = ?</p>","8","","","","","","","8 - 0","8","true","","","","","","","",""
"","","","","","html-keyboard-response","61","2.0.0","187121","null","<p style=""font-size:100px"">8 - 0 = 8</p><p style=""font-size:100px"">Correct!</p>","null","","","","","","","","","","","","","","","","",""
"","","","","","html-keyboard-response","62","2.0.0","189129","null","<p style=""font-size:100px"">Hannah</p>","null","Hannah","control","latino","Female","","","","","","","","","","","","",""
"","","","","","image-keyboard-response","63","2.0.0","192135","null","./images/LF-241.jpg","null","Hannah","","","","./images/LF-241.jpg","","","","","","","","","","","",""
"","","","","","html-keyboard-response","64","2.0.0","197137","null","<p style=""font-size:100px"">Hannah</p>","null","","","","","","","","","","","","","","","","",""
"","","","","","html-keyboard-response","65","2.0.0","199975","2836","<p>how would you rate their attractiveness? (Rate between 1-7)<p/>
            <p>1-very unattractive; 7-very attractive<p/>","3","","","","","","attractive_rating","","","","","","","","","","",""
"","","","","","html-keyboard-response","66","2.0.0","201410","1434","<p style=""font-size:100px"">8 - 8 = ?</p>","0","","","","","","","8 - 8","0","true","","","","","","","",""
"","","","","","html-keyboard-response","67","2.0.0","203482","null","<p style=""font-size:100px"">8 - 8 = 0</p><p style=""font-size:100px"">Correct!</p>","null","","","","","","","","","","","","","","","","",""
"","","","","","html-keyboard-response","68","2.0.0","205488","null","<p style=""font-size:100px"">Hunter</p>","null","Hunter","Face-first","latino","Male","","","","","","negative","","","","","","",""
"","","","","","image-keyboard-response","69","2.0.0","208496","null","./images/LM-239.jpg","null","Hunter","Face-first","","","./images/LM-239.jpg","","","","","negative","","","","","","",""
"","","","","","html-keyboard-response","70","2.0.0","213503","null","<p style=""font-size:40px; line-height:1.5; margin: 0 50px 0 50px"">Hunter ignores group messages that ask for help organizing events. </p>","null","Hunter","Face-first","","","","","","","","negative","ignores group messages that ask for help organizing events.","","","","","",""
"","","","","","html-keyboard-response","71","2.0.0","215659","2155","<p >how would you rate their behavior? (Rate between 1-7)<p/>
            <p>w1-very untrustworthy, 7-very trustworthy<p/>","1","","","","","","trustworthy_rating","","","","","","","","","","",""
"","","","","","html-keyboard-response","72","2.0.0","217330","1670","<p style=""font-size:100px"">7 + 2  = ?</p>","9","","","","","","","7 + 2 ","9","true","","","","","","","",""
"","","","","","html-keyboard-response","73","2.0.0","219163","null","<p style=""font-size:100px"">7 + 2  = 9</p><p style=""font-size:100px"">Correct!</p>","null","","","","","","","","","","","","","","","","",""
"","","","","","html-keyboard-response","74","2.0.0","221168","null","<p style=""font-size:100px"">Nathan</p>","null","Nathan","Face-first","latino","Male","","","","","","neutral","","","","","","",""
"","","","","","image-keyboard-response","75","2.0.0","224175","null","./images/LM-231.jpg","null","Nathan","Face-first","","","./images/LM-231.jpg","","","","","neutral","","","","","","",""
"","","","","","html-keyboard-response","76","2.0.0","229179","null","<p style=""font-size:40px; line-height:1.5; margin: 0 50px 0 50px"">Nathan takes the car to the wash every weekend to keep it spotless. </p>","null","Nathan","Face-first","","","","","","","","neutral","takes the car to the wash every weekend to keep it spotless.","","","","","",""
"","","","","","html-keyboard-response","77","2.0.0","232031","2850","<p >how would you rate their behavior? (Rate between 1-7)<p/>
            <p>w1-very untrustworthy, 7-very trustworthy<p/>","7","","","","","","trustworthy_rating","","","","","","","","","","",""
"","","","","","html-keyboard-response","78","2.0.0","234348","2316","<p style=""font-size:100px"">5 + 2  = ?</p>","7","","","","","","","5 + 2 ","7","true","","","","","","","",""
"","","","","","html-keyboard-response","79","2.0.0","235537","null","<p style=""font-size:100px"">5 + 2  = 7</p><p style=""font-size:100px"">Correct!</p>","null","","","","","","","","","","","","","","","","",""
"","","","","","html-keyboard-response","80","2.0.0","237539","null","<p style=""font-size:100px"">Isaac</p>","null","Isaac","control","latino","Male","","","","","","","","","","","","",""
"","","","","","image-keyboard-response","81","2.0.0","240544","null","./images/LM-243.jpg","null","Isaac","","","","./images/LM-243.jpg","","","","","","","","","","","",""
"","","","","","html-keyboard-response","82","2.0.0","245548","null","<p style=""font-size:100px"">Isaac</p>","null","","","","","","","","","","","","","","","","",""
"","","","","","html-keyboard-response","83","2.0.0","247947","2398","<p>how would you rate their attractiveness? (Rate between 1-7)<p/>
            <p>1-very unattractive; 7-very attractive<p/>","2","","","","","","attractive_rating","","","","","","","","","","",""
"","","","","","html-keyboard-response","84","2.0.0","250009","2061","<p style=""font-size:100px"">2 - 1 = ?</p>","1","","","","","","","2 - 1","1","true","","","","","","","",""
"","","","","","html-keyboard-response","85","2.0.0","251451","null","<p style=""font-size:100px"">2 - 1 = 1</p><p style=""font-size:100px"">Correct!</p>","null","","","","","","","","","","","","","","","","",""
"","","","","","html-keyboard-response","86","2.0.0","253457","null","<p style=""font-size:100px"">Taylor</p>","null","Taylor","Bio-first","","","","","","","","positive","","","","","","",""
"","","","","","html-keyboard-response","87","2.0.0","258463","null","<p style=""font-size:40px;line-height:1.5; margin: 0 50px 0 50px"">Taylor happily volunteers to babysit for a friend who needs a night off. </p>","null","Taylor","Bio-first","","","","","","","","positive","happily volunteers to babysit for a friend who needs a night off.","","","","","",""
"","","","","","image-keyboard-response","88","2.0.0","261471","null","./images/WF-214.jpg","null","Taylor","Bio-first","","","./images/WF-214.jpg","","","","","positive","","","","","","",""
"","","","","","html-keyboard-response","89","2.0.0","263182","1710","<p>how would you rate their behavior? (Rate between 1-7)<p/>
            <p>1-very trustworthy, 7-very untrustworthy<p/>","1","","","","","","trustworthy_rating","","","","","","","","","","",""
"","","","","","html-keyboard-response","90","2.0.0","264742","1559","<p style=""font-size:100px"">3 + 2  = ?</p>","5","","","","","","","3 + 2 ","5","true","","","","","","","",""
"","","","","","html-keyboard-response","91","2.0.0","266689","null","<p style=""font-size:100px"">3 + 2  = 5</p><p style=""font-size:100px"">Correct!</p>","null","","","","","","","","","","","","","","","","",""
"","","","","","html-keyboard-response","92","2.0.0","268696","null","<p style=""font-size:100px"">Allison</p>","null","Allison","control","white","Female","","","","","","","","","","","","",""
"","","","","","image-keyboard-response","93","2.0.0","271703","null","./images/WF-233.jpg","null","Allison","","","","./images/WF-233.jpg","","","","","","","","","","","",""
"","","","","","html-keyboard-response","94","2.0.0","276710","null","<p style=""font-size:100px"">Allison</p>","null","","","","","","","","","","","","","","","","",""
"","","","","","html-keyboard-response","95","2.0.0","278855","2144","<p>how would you rate their attractiveness? (Rate between 1-7)<p/>
            <p>1-very unattractive; 7-very attractive<p/>","3","","","","","","attractive_rating","","","","","","","","","","",""
"","","","","","html-keyboard-response","96","2.0.0","281126","2264","<p style=""font-size:100px"">8 - 6 = ?</p>","2","","","","","","","8 - 6","2","true","","","","","","","",""
"","","","","","html-keyboard-response","97","2.0.0","282368","null","<p style=""font-size:100px"">8 - 6 = 2</p><p style=""font-size:100px"">Correct!</p>","null","","","","","","","","","","","","","","","","",""
"","","","","","html-keyboard-response","98","2.0.0","284375","null","<p style=""font-size:100px"">Samantha</p>","null","Samantha","Face-first","asian","Female","","","","","","neutral","","","","","","",""
"","","","","","image-keyboard-response","99","2.0.0","287382","null","./images/AF-226.jpg","null","Samantha","Face-first","","","./images/AF-226.jpg","","","","","neutral","","","","","","",""
"","","","","","html-keyboard-response","100","2.0.0","292384","null","<p style=""font-size:40px; line-height:1.5; margin: 0 50px 0 50px"">Samantha watches nature documentaries after dinner each night to relax. </p>","null","Samantha","Face-first","","","","","","","","neutral","watches nature documentaries after dinner each night to relax.","","","","","",""
"","","","","","html-keyboard-response","101","2.0.0","308718","16333","<p >how would you rate their behavior? (Rate between 1-7)<p/>
            <p>w1-very untrustworthy, 7-very trustworthy<p/>","7","","","","","","trustworthy_rating","","","","","","","","","","",""
"","","","","","html-keyboard-response","102","2.0.0","310284","1565","<p style=""font-size:100px"">5 - 1 = ?</p>","4","","","","","","","5 - 1","4","true","","","","","","","",""
"","","","","","html-keyboard-response","103","2.0.0","312224","null","<p style=""font-size:100px"">5 - 1 = 4</p><p style=""font-size:100px"">Correct!</p>","null","","","","","","","","","","","","","","","","",""
"","","","","","html-keyboard-response","104","2.0.0","314230","null","<p style=""font-size:100px"">Connor</p>","null","Connor","Bio-first","","","","","","","","positive","","","","","","",""
"","","","","","html-keyboard-response","105","2.0.0","319237","null","<p style=""font-size:40px;line-height:1.5; margin: 0 50px 0 50px"">Connor spends weekends volunteering at the local animal shelter with enthusiasm. </p>","null","Connor","Bio-first","","","","","","","","positive","spends weekends volunteering at the local animal shelter with enthusiasm.","","","","","",""
"","","","","","image-keyboard-response","106","2.0.0","322244","null","./images/WM-200.jpg","null","Connor","Bio-first","","","./images/WM-200.jpg","","","","","positive","","","","","","",""
"","","","","","html-keyboard-response","107","2.0.0","324291","2047","<p>how would you rate their behavior? (Rate between 1-7)<p/>
            <p>1-very trustworthy, 7-very untrustworthy<p/>","1","","","","","","trustworthy_rating","","","","","","","","","","",""
"","","","","","html-keyboard-response","108","2.0.0","326092","1800","<p style=""font-size:100px"">5 + 2  = ?</p>","7","","","","","","","5 + 2 ","7","true","","","","","","","",""
"","","","","","html-keyboard-response","109","2.0.0","327798","null","<p style=""font-size:100px"">5 + 2  = 7</p><p style=""font-size:100px"">Correct!</p>","null","","","","","","","","","","","","","","","","",""
"","","","","","html-keyboard-response","110","2.0.0","329804","null","<p style=""font-size:100px"">Christopher</p>","null","Christopher","control","latino","Male","","","","","","","","","","","","",""
"","","","","","image-keyboard-response","111","2.0.0","332808","null","./images/LM-207.jpg","null","Christopher","","","","./images/LM-207.jpg","","","","","","","","","","","",""
"","","","","","html-keyboard-response","112","2.0.0","337814","null","<p style=""font-size:100px"">Christopher</p>","null","","","","","","","","","","","","","","","","",""
"","","","","","html-keyboard-response","113","2.0.0","341004","3189","<p>how would you rate their attractiveness? (Rate between 1-7)<p/>
            <p>1-very unattractive; 7-very attractive<p/>","2","","","","","","attractive_rating","","","","","","","","","","",""
"","","","","","html-keyboard-response","114","2.0.0","343088","2083","<p style=""font-size:100px"">6 - 2 = ?</p>","4","","","","","","","6 - 2","4","true","","","","","","","",""
"","","","","","html-keyboard-response","115","2.0.0","344508","null","<p style=""font-size:100px"">6 - 2 = 4</p><p style=""font-size:100px"">Correct!</p>","null","","","","","","","","","","","","","","","","",""
"","","","","","html-keyboard-response","116","2.0.0","346512","null","<p style=""font-size:100px"">Victoria</p>","null","Victoria","Face-first","asian","Female","","","","","","negative","","","","","","",""
"","","","","","image-keyboard-response","117","2.0.0","349520","null","./images/AF-225.jpg","null","Victoria","Face-first","","","./images/AF-225.jpg","","","","","negative","","","","","","",""
"","","","","","html-keyboard-response","118","2.0.0","354526","null","<p style=""font-size:40px; line-height:1.5; margin: 0 50px 0 50px"">Victoria leaves trash on tables after lunch, ignoring others' requests to clean. </p>","null","Victoria","Face-first","","","","","","","","negative","leaves trash on tables after lunch, ignoring others' requests to clean.","","","","","",""
"","","","","","html-keyboard-response","119","2.0.0","356629","2101","<p >how would you rate their behavior? (Rate between 1-7)<p/>
            <p>w1-very untrustworthy, 7-very trustworthy<p/>","1","","","","","","trustworthy_rating","","","","","","","","","","",""
"","","","","","html-keyboard-response","120","2.0.0","358019","1389","<p style=""font-size:100px"">7 - 2 = ?</p>","5","","","","","","","7 - 2","5","true","","","","","","","",""
"","","","","","html-keyboard-response","121","2.0.0","360131","null","<p style=""font-size:100px"">7 - 2 = 5</p><p style=""font-size:100px"">Correct!</p>","null","","","","","","","","","","","","","","","","",""
"","","","","","html-keyboard-response","122","2.0.0","362136","null","<p style=""font-size:100px"">Christian</p>","null","Christian","Bio-first","","","","","","","","neutral","","","","","","",""
"","","","","","html-keyboard-response","123","2.0.0","367142","null","<p style=""font-size:40px;line-height:1.5; margin: 0 50px 0 50px"">Christian organizes a collection of potted plants on the balcony every few weeks for a fresh look. </p>","null","Christian","Bio-first","","","","","","","","neutral","organizes a collection of potted plants on the balcony every few weeks for a fresh look.","","","","","",""
"","","","","","image-keyboard-response","124","2.0.0","370150","null","./images/WM-033.jpg","null","Christian","Bio-first","","","./images/WM-033.jpg","","","","","neutral","","","","","","",""
"","","","","","html-keyboard-response","125","2.0.0","372262","2112","<p>how would you rate their behavior? (Rate between 1-7)<p/>
            <p>1-very trustworthy, 7-very untrustworthy<p/>","1","","","","","","trustworthy_rating","","","","","","","","","","",""
"","","","","","html-keyboard-response","126","2.0.0","373590","1327","<p style=""font-size:100px"">1 + 2  = ?</p>","3","","","","","","","1 + 2 ","3","true","","","","","","","",""
"","","","","","html-keyboard-response","127","2.0.0","375766","null","<p style=""font-size:100px"">1 + 2  = 3</p><p style=""font-size:100px"">Correct!</p>","null","","","","","","","","","","","","","","","","",""
"","","","","","html-keyboard-response","128","2.0.0","377773","null","<p style=""font-size:100px"">Megan</p>","null","Megan","Bio-first","","","","","","","","neutral","","","","","","",""
"","","","","","html-keyboard-response","129","2.0.0","382779","null","<p style=""font-size:40px;line-height:1.5; margin: 0 50px 0 50px"">Megan cooks fresh pasta dinners on Sunday evenings as a weekend treat. </p>","null","Megan","Bio-first","","","","","","","","neutral","cooks fresh pasta dinners on Sunday evenings as a weekend treat.","","","","","",""
"","","","","","image-keyboard-response","130","2.0.0","385786","null","./images/WF-017.jpg","null","Megan","Bio-first","","","./images/WF-017.jpg","","","","","neutral","","","","","","",""
"","","","","","html-keyboard-response","131","2.0.0","390903","5116","<p>how would you rate their behavior? (Rate between 1-7)<p/>
            <p>1-very trustworthy, 7-very untrustworthy<p/>","1","","","","","","trustworthy_rating","","","","","","","","","","",""
"","","","","","html-keyboard-response","132","2.0.0","392530","1626","<p style=""font-size:100px"">5 - 3 = ?</p>","2","","","","","","","5 - 3","2","true","","","","","","","",""
"","","","","","html-keyboard-response","133","2.0.0","394406","null","<p style=""font-size:100px"">5 - 3 = 2</p><p style=""font-size:100px"">Correct!</p>","null","","","","","","","","","","","","","","","","",""
"","","","","","html-keyboard-response","134","2.0.0","396410","null","<p style=""font-size:100px"">Jackson</p>","null","Jackson","Face-first","asian","Male","","","","","","negative","","","","","","",""
"","","","","","image-keyboard-response","135","2.0.0","399418","null","./images/AM-221.jpg","null","Jackson","Face-first","","","./images/AM-221.jpg","","","","","negative","","","","","","",""
"","","","","","html-keyboard-response","136","2.0.0","404421","null","<p style=""font-size:40px; line-height:1.5; margin: 0 50px 0 50px"">Jackson interrupts others during meetings, taking over conversations without notice. </p>","null","Jackson","Face-first","","","","","","","","negative","interrupts others during meetings, taking over conversations without notice.","","","","","",""
"","","","","","html-keyboard-response","137","2.0.0","406173","1751","<p >how would you rate their behavior? (Rate between 1-7)<p/>
            <p>w1-very untrustworthy, 7-very trustworthy<p/>","1","","","","","","trustworthy_rating","","","","","","","","","","",""
"","","","","","html-keyboard-response","138","2.0.0","407581","1408","<p style=""font-size:100px"">1 + 5  = ?</p>","6","","","","","","","1 + 5 ","6","true","","","","","","","",""
"","","","","","html-keyboard-response","139","2.0.0","409680","null","<p style=""font-size:100px"">1 + 5  = 6</p><p style=""font-size:100px"">Correct!</p>","null","","","","","","","","","","","","","","","","",""
"","","","","","html-keyboard-response","140","2.0.0","411687","null","<p style=""font-size:100px"">Cameron</p>","null","Cameron","control","asian","Male","","","","","","","","","","","","",""
"","","","","","image-keyboard-response","141","2.0.0","414695","null","./images/AM-237.jpg","null","Cameron","","","","./images/AM-237.jpg","","","","","","","","","","","",""
"","","","","","html-keyboard-response","142","2.0.0","419701","null","<p style=""font-size:100px"">Cameron</p>","null","","","","","","","","","","","","","","","","",""
"","","","","","html-keyboard-response","143","2.0.0","421933","2231","<p>how would you rate their attractiveness? (Rate between 1-7)<p/>
            <p>1-very unattractive; 7-very attractive<p/>","3","","","","","","attractive_rating","","","","","","","","","","",""
"","","","","","html-keyboard-response","144","2.0.0","424037","2104","<p style=""font-size:100px"">0 + 2  = ?</p>","2","","","","","","","0 + 2 ","2","true","","","","","","","",""
"","","","","","html-keyboard-response","145","2.0.0","425436","null","<p style=""font-size:100px"">0 + 2  = 2</p><p style=""font-size:100px"">Correct!</p>","null","","","","","","","","","","","","","","","","",""
"","","","","","html-keyboard-response","146","2.0.0","427443","null","<p style=""font-size:100px"">Lilian</p>","null","Lilian","Bio-first","","","","","","","","negative","","","","","","",""
"","","","","","html-keyboard-response","147","2.0.0","432448","null","<p style=""font-size:40px;line-height:1.5; margin: 0 50px 0 50px"">Lilian frequently speaks over others in group discussions, disregarding their input </p>","null","Lilian","Bio-first","","","","","","","","negative","frequently speaks over others in group discussions, disregarding their input","","","","","",""
"","","","","","image-keyboard-response","148","2.0.0","435454","null","./images/LF-209.jpg","null","Lilian","Bio-first","","","./images/LF-209.jpg","","","","","negative","","","","","","",""
"","","","","","html-keyboard-response","149","2.0.0","437289","1834","<p>how would you rate their behavior? (Rate between 1-7)<p/>
            <p>1-very trustworthy, 7-very untrustworthy<p/>","7","","","","","","trustworthy_rating","","","","","","","","","","",""
"","","","","","html-keyboard-response","150","2.0.0","438772","1482","<p style=""font-size:100px"">1 + 2  = ?</p>","3","","","","","","","1 + 2 ","3","true","","","","","","","",""
"","","","","","html-keyboard-response","151","2.0.0","440794","null","<p style=""font-size:100px"">1 + 2  = 3</p><p style=""font-size:100px"">Correct!</p>","null","","","","","","","","","","","","","","","","",""
"","","","","","html-keyboard-response","152","2.0.0","442797","null","<p style=""font-size:100px"">Elijah</p>","null","Elijah","control","latino","Male","","","","","","","","","","","","",""
"","","","","","image-keyboard-response","153","2.0.0","445805","null","./images/LM-210.jpg","null","Elijah","","","","./images/LM-210.jpg","","","","","","","","","","","",""
"","","","","","html-keyboard-response","154","2.0.0","450810","null","<p style=""font-size:100px"">Elijah</p>","null","","","","","","","","","","","","","","","","",""
"","","","","","html-keyboard-response","155","2.0.0","454416","3605","<p>how would you rate their attractiveness? (Rate between 1-7)<p/>
            <p>1-very unattractive; 7-very attractive<p/>","1","","","","","","attractive_rating","","","","","","","","","","",""
"","","","","","html-keyboard-response","156","2.0.0","457423","null","<p style=""font-size:100px"">6 + 2  = ?</p>","null","","","","","","","6 + 2 ","8","false","","","","","","","",""
"","","","","","html-keyboard-response","157","2.0.0","457929","null","<p style=""font-size:100px"">6 + 2  = 8</p><p style=""font-size:100px"">Wrong.</p>","null","","","","","","","","","","","","","","","","",""
"","","","","","html-keyboard-response","158","2.0.0","459936","null","<p style=""font-size:100px"">Abigial</p>","null","Abigial","Face-first","white","Female","","","","","","positive","","","","","","",""
"","","","","","image-keyboard-response","159","2.0.0","462939","null","./images/WF-027.jpg","null","Abigial","Face-first","","","./images/WF-027.jpg","","","","","positive","","","","","","",""
"","","","","","html-keyboard-response","160","2.0.0","467941","null","<p style=""font-size:40px; line-height:1.5; margin: 0 50px 0 50px"">Abigial stays late to help friends finish up big projects. </p>","null","Abigial","Face-first","","","","","","","","positive","stays late to help friends finish up big projects.","","","","","",""
"","","","","","html-keyboard-response","161","2.0.0","469742","1800","<p >how would you rate their behavior? (Rate between 1-7)<p/>
            <p>w1-very untrustworthy, 7-very trustworthy<p/>","7","","","","","","trustworthy_rating","","","","","","","","","","",""
"","","","","","html-keyboard-response","162","2.0.0","471236","1493","<p style=""font-size:100px"">7 - 4 = ?</p>","3","","","","","","","7 - 4","3","true","","","","","","","",""
"","","","","","html-keyboard-response","163","2.0.0","473245","null","<p style=""font-size:100px"">7 - 4 = 3</p><p style=""font-size:100px"">Correct!</p>","null","","","","","","","","","","","","","","","","",""
"","","","","","html-keyboard-response","164","2.0.0","475251","null","<p style=""font-size:100px"">Olivia</p>","null","Olivia","Face-first","latino","Female","","","","","","positive","","","","","","",""
"","","","","","image-keyboard-response","165","2.0.0","478256","null","./images/LF-212.jpg","null","Olivia","Face-first","","","./images/LF-212.jpg","","","","","positive","","","","","","",""
"","","","","","html-keyboard-response","166","2.0.0","483263","null","<p style=""font-size:40px; line-height:1.5; margin: 0 50px 0 50px"">Olivia surprises coworkers with coffee on busy mornings to boost morale.  </p>","null","Olivia","Face-first","","","","","","","","positive","surprises coworkers with coffee on busy mornings to boost morale. ","","","","","",""
"","","","","","html-keyboard-response","167","2.0.0","485047","1783","<p >how would you rate their behavior? (Rate between 1-7)<p/>
            <p>w1-very untrustworthy, 7-very trustworthy<p/>","7","","","","","","trustworthy_rating","","","","","","","","","","",""
"","","","","","html-keyboard-response","168","2.0.0","486933","1886","<p style=""font-size:100px"">1 + 5  = ?</p>","6","","","","","","","1 + 5 ","6","true","","","","","","","",""
"","","","","","html-keyboard-response","169","2.0.0","488550","null","<p style=""font-size:100px"">1 + 5  = 6</p><p style=""font-size:100px"">Correct!</p>","null","","","","","","","","","","","","","","","","",""
"","","","","","html-keyboard-response","170","2.0.0","490555","null","<p style=""font-size:100px"">Jennifer</p>","null","Jennifer","Bio-first","","","","","","","","negative","","","","","","",""
"","","","","","html-keyboard-response","171","2.0.0","495562","null","<p style=""font-size:40px;line-height:1.5; margin: 0 50px 0 50px"">Jennifer criticizes others' ideas without offering constructive feedback. </p>","null","Jennifer","Bio-first","","","","","","","","negative","criticizes others' ideas without offering constructive feedback.","","","","","",""
"","","","","","image-keyboard-response","172","2.0.0","498569","null","./images/WF-235.jpg","null","Jennifer","Bio-first","","","./images/WF-235.jpg","","","","","negative","","","","","","",""
"","","","","","html-keyboard-response","173","2.0.0","500282","1712","<p>how would you rate their behavior? (Rate between 1-7)<p/>
            <p>1-very trustworthy, 7-very untrustworthy<p/>","7","","","","","","trustworthy_rating","","","","","","","","","","",""
"","","","","","html-keyboard-response","174","2.0.0","501565","1282","<p style=""font-size:100px"">1 + 3  = ?</p>","4","","","","","","","1 + 3 ","4","true","","","","","","","",""
"","","","","","html-keyboard-response","175","2.0.0","503785","null","<p style=""font-size:100px"">1 + 3  = 4</p><p style=""font-size:100px"">Correct!</p>","null","","","","","","","","","","","","","","","","",""
"","","","","","html-keyboard-response","176","2.0.0","505790","null","<p style=""font-size:100px"">Madison</p>","null","Madison","control","white","Female","","","","","","","","","","","","",""
"","","","","","image-keyboard-response","177","2.0.0","508797","null","./images/WF-207.jpg","null","Madison","","","","./images/WF-207.jpg","","","","","","","","","","","",""
"","","","","","html-keyboard-response","178","2.0.0","513803","null","<p style=""font-size:100px"">Madison</p>","null","","","","","","","","","","","","","","","","",""
"","","","","","html-keyboard-response","179","2.0.0","516263","2459","<p>how would you rate their attractiveness? (Rate between 1-7)<p/>
            <p>1-very unattractive; 7-very attractive<p/>","4","","","","","","attractive_rating","","","","","","","","","","",""
"","","","","","html-keyboard-response","180","2.0.0","517979","1715","<p style=""font-size:100px"">6 - 2 = ?</p>","4","","","","","","","6 - 2","4","true","","","","","","","",""
"","","","","","html-keyboard-response","181","2.0.0","519770","null","<p style=""font-size:100px"">6 - 2 = 4</p><p style=""font-size:100px"">Correct!</p>","null","","","","","","","","","","","","","","","","",""
"","","","","","html-keyboard-response","182","2.0.0","521777","null","<p style=""font-size:100px"">Jasmine</p>","null","Jasmine","Bio-first","","","","","","","","negative","","","","","","",""
"","","","","","html-keyboard-response","183","2.0.0","526783","null","<p style=""font-size:40px;line-height:1.5; margin: 0 50px 0 50px"">Jasmine leaves dirty dishes in the office sink for others to clean. </p>","null","Jasmine","Bio-first","","","","","","","","negative","leaves dirty dishes in the office sink for others to clean.","","","","","",""
"","","","","","image-keyboard-response","184","2.0.0","529787","null","./images/AF-244.jpg","null","Jasmine","Bio-first","","","./images/AF-244.jpg","","","","","negative","","","","","","",""
"","","","","","html-keyboard-response","185","2.0.0","532956","3169","<p>how would you rate their behavior? (Rate between 1-7)<p/>
            <p>1-very trustworthy, 7-very untrustworthy<p/>","7","","","","","","trustworthy_rating","","","","","","","","","","",""
"","","","","","html-keyboard-response","186","2.0.0","534825","1868","<p style=""font-size:100px"">5 - 3 = ?</p>","2","","","","","","","5 - 3","2","true","","","","","","","",""
"","","","","","html-keyboard-response","187","2.0.0","536459","null","<p style=""font-size:100px"">5 - 3 = 2</p><p style=""font-size:100px"">Correct!</p>","null","","","","","","","","","","","","","","","","",""
"","","","","","html-keyboard-response","188","2.0.0","538465","null","<p style=""font-size:100px"">Joshua</p>","null","Joshua","Face-first","asian","Male","","","","","","positive","","","","","","",""
"","","","","","image-keyboard-response","189","2.0.0","541471","null","./images/AM-207.jpg","null","Joshua","Face-first","","","./images/AM-207.jpg","","","","","positive","","","","","","",""
"","","","","","html-keyboard-response","190","2.0.0","546478","null","<p style=""font-size:40px; line-height:1.5; margin: 0 50px 0 50px"">Joshua organizes a team-building activity to strengthen relationships among colleagues. </p>","null","Joshua","Face-first","","","","","","","","positive","organizes a team-building activity to strengthen relationships among colleagues.","","","","","",""
"","","","","","html-keyboard-response","191","2.0.0","548037","1558","<p >how would you rate their behavior? (Rate between 1-7)<p/>
            <p>w1-very untrustworthy, 7-very trustworthy<p/>","7","","","","","","trustworthy_rating","","","","","","","","","","",""
"","","","","","html-keyboard-response","192","2.0.0","549857","1818","<p style=""font-size:100px"">3 + 5  = ?</p>","8","","","","","","","3 + 5 ","8","true","","","","","","","",""
"","","","","","html-keyboard-response","193","2.0.0","551545","null","<p style=""font-size:100px"">3 + 5  = 8</p><p style=""font-size:100px"">Correct!</p>","null","","","","","","","","","","","","","","","","",""
"","","","","","html-keyboard-response","194","2.0.0","553549","null","<p style=""font-size:100px"">Haley</p>","null","Haley","control","asian","Female","","","","","","","","","","","","",""
"","","","","","image-keyboard-response","195","2.0.0","556562","null","./images/AF-252.jpg","null","Haley","","","","./images/AF-252.jpg","","","","","","","","","","","",""
"","","","","","html-keyboard-response","196","2.0.0","561569","null","<p style=""font-size:100px"">Haley</p>","null","","","","","","","","","","","","","","","","",""
"","","","","","html-keyboard-response","197","2.0.0","563570","2000","<p>how would you rate their attractiveness? (Rate between 1-7)<p/>
            <p>1-very unattractive; 7-very attractive<p/>","4","","","","","","attractive_rating","","","","","","","","","","",""
"","","","","","html-keyboard-response","198","2.0.0","565003","1432","<p style=""font-size:100px"">2 - 1 = ?</p>","1","","","","","","","2 - 1","1","true","","","","","","","",""
"","","","","","html-keyboard-response","199","2.0.0","567074","null","<p style=""font-size:100px"">2 - 1 = 1</p><p style=""font-size:100px"">Correct!</p>","null","","","","","","","","","","","","","","","","",""
"","","","","","html-keyboard-response","200","2.0.0","569080","null","<p style=""font-size:100px"">Tyler</p>","null","Tyler","Bio-first","","","","","","","","negative","","","","","","",""
"","","","","","html-keyboard-response","201","2.0.0","574086","null","<p style=""font-size:40px;line-height:1.5; margin: 0 50px 0 50px"">Tyler borrows items from friends and returns them noticeably damaged. </p>","null","Tyler","Bio-first","","","","","","","","negative","borrows items from friends and returns them noticeably damaged.","","","","","",""
"","","","","","image-keyboard-response","202","2.0.0","577093","null","./images/LM-208.jpg","null","Tyler","Bio-first","","","./images/LM-208.jpg","","","","","negative","","","","","","",""
"","","","","","html-keyboard-response","203","2.0.0","578967","1873","<p>how would you rate their behavior? (Rate between 1-7)<p/>
            <p>1-very trustworthy, 7-very untrustworthy<p/>","7","","","","","","trustworthy_rating","","","","","","","","","","",""
"","","","","","html-keyboard-response","204","2.0.0","580487","1519","<p style=""font-size:100px"">4 - 2 = ?</p>","2","","","","","","","4 - 2","2","true","","","","","","","",""
"","","","","","html-keyboard-response","205","2.0.0","582473","null","<p style=""font-size:100px"">4 - 2 = 2</p><p style=""font-size:100px"">Correct!</p>","null","","","","","","","","","","","","","","","","",""
"","","","","","html-keyboard-response","206","2.0.0","584478","null","<p style=""font-size:100px"">Stephanie</p>","null","Stephanie","Face-first","asian","Female","","","","","","positive","","","","","","",""
"","","","","","image-keyboard-response","207","2.0.0","587483","null","./images/AF-219.jpg","null","Stephanie","Face-first","","","./images/AF-219.jpg","","","","","positive","","","","","","",""
"","","","","","html-keyboard-response","208","2.0.0","592490","null","<p style=""font-size:40px; line-height:1.5; margin: 0 50px 0 50px"">Stephanie checks in on friends feeling down, calling to brighten their day. </p>","null","Stephanie","Face-first","","","","","","","","positive","checks in on friends feeling down, calling to brighten their day.","","","","","",""
"","","","","","html-keyboard-response","209","2.0.0","594996","2505","<p >how would you rate their behavior? (Rate between 1-7)<p/>
            <p>w1-very untrustworthy, 7-very trustworthy<p/>","7","","","","","","trustworthy_rating","","","","","","","","","","",""
"","","","","","html-keyboard-response","210","2.0.0","596488","1491","<p style=""font-size:100px"">8 - 8 = ?</p>","0","","","","","","","8 - 8","0","true","","","","","","","",""
"","","","","","html-keyboard-response","211","2.0.0","598500","null","<p style=""font-size:100px"">8 - 8 = 0</p><p style=""font-size:100px"">Correct!</p>","null","","","","","","","","","","","","","","","","",""
"","","","","","html-keyboard-response","212","2.0.0","600507","null","<p style=""font-size:100px"">Lauren</p>","null","Lauren","control","latino","Female","","","","","","","","","","","","",""
"","","","","","image-keyboard-response","213","2.0.0","603512","null","./images/LF-247.jpg","null","Lauren","","","","./images/LF-247.jpg","","","","","","","","","","","",""
"","","","","","html-keyboard-response","214","2.0.0","608519","null","<p style=""font-size:100px"">Lauren</p>","null","","","","","","","","","","","","","","","","",""
"","","","","","html-keyboard-response","215","2.0.0","610933","2413","<p>how would you rate their attractiveness? (Rate between 1-7)<p/>
            <p>1-very unattractive; 7-very attractive<p/>","3","","","","","","attractive_rating","","","","","","","","","","",""
"","","","","","html-keyboard-response","216","2.0.0","612576","1643","<p style=""font-size:100px"">0 + 2  = ?</p>","2","","","","","","","0 + 2 ","2","true","","","","","","","",""
"","","","","","html-keyboard-response","217","2.0.0","614440","null","<p style=""font-size:100px"">0 + 2  = 2</p><p style=""font-size:100px"">Correct!</p>","null","","","","","","","","","","","","","","","","",""
"","","","","","html-keyboard-response","218","2.0.0","616443","null","<p style=""font-size:100px"">Robert</p>","null","Robert","control","white","Male","","","","","","","","","","","","",""
"","","","","","image-keyboard-response","219","2.0.0","619450","null","./images/WM-208.jpg","null","Robert","","","","./images/WM-208.jpg","","","","","","","","","","","",""
"","","","","","html-keyboard-response","220","2.0.0","624457","null","<p style=""font-size:100px"">Robert</p>","null","","","","","","","","","","","","","","","","",""
"","","","","","html-keyboard-response","221","2.0.0","626349","1892","<p>how would you rate their attractiveness? (Rate between 1-7)<p/>
            <p>1-very unattractive; 7-very attractive<p/>","2","","","","","","attractive_rating","","","","","","","","","","",""
"","","","","","html-keyboard-response","222","2.0.0","628090","1740","<p style=""font-size:100px"">6 - 0 = ?</p>","6","","","","","","","6 - 0","6","true","","","","","","","",""
"","","","","","html-keyboard-response","223","2.0.0","629856","null","<p style=""font-size:100px"">6 - 0 = 6</p><p style=""font-size:100px"">Correct!</p>","null","","","","","","","","","","","","","","","","",""
"","","","","","html-keyboard-response","224","2.0.0","631862","null","<p style=""font-size:100px"">James</p>","null","James","Bio-first","","","","","","","","neutral","","","","","","",""
"","","","","","html-keyboard-response","225","2.0.0","636869","null","<p style=""font-size:40px;line-height:1.5; margin: 0 50px 0 50px"">James reads mystery novels in the park every Sunday, rian or shine. </p>","null","James","Bio-first","","","","","","","","neutral","reads mystery novels in the park every Sunday, rian or shine.","","","","","",""
"","","","","","image-keyboard-response","226","2.0.0","639872","null","./images/LM-241.jpg","null","James","Bio-first","","","./images/LM-241.jpg","","","","","neutral","","","","","","",""
"","","","","","html-keyboard-response","227","2.0.0","642645","2772","<p>how would you rate their behavior? (Rate between 1-7)<p/>
            <p>1-very trustworthy, 7-very untrustworthy<p/>","1","","","","","","trustworthy_rating","","","","","","","","","","",""
"","","","","","html-keyboard-response","228","2.0.0","643981","1335","<p style=""font-size:100px"">2 + 3 = ?</p>","5","","","","","","","2 + 3","5","true","","","","","","","",""
"","","","","","html-keyboard-response","229","2.0.0","646150","null","<p style=""font-size:100px"">2 + 3 = 5</p><p style=""font-size:100px"">Correct!</p>","null","","","","","","","","","","","","","","","","",""
"","","","","","html-keyboard-response","230","2.0.0","648154","null","<p style=""font-size:100px"">Chloe</p>","null","Chloe","Face-first","white","Female","","","","","","negative","","","","","","",""
"","","","","","image-keyboard-response","231","2.0.0","651161","null","./images/WF-244.jpg","null","Chloe","Face-first","","","./images/WF-244.jpg","","","","","negative","","","","","","",""
"","","","","","html-keyboard-response","232","2.0.0","656167","null","<p style=""font-size:40px; line-height:1.5; margin: 0 50px 0 50px"">Chloe takes calls loudly at dinner, distracting everyone eating nearby. </p>","null","Chloe","Face-first","","","","","","","","negative","takes calls loudly at dinner, distracting everyone eating nearby.","","","","","",""
"","","","","","html-keyboard-response","233","2.0.0","658206","2038","<p >how would you rate their behavior? (Rate between 1-7)<p/>
            <p>w1-very untrustworthy, 7-very trustworthy<p/>","1","","","","","","trustworthy_rating","","","","","","","","","","",""
"","","","","","html-keyboard-response","234","2.0.0","659584","1377","<p style=""font-size:100px"">0 + 5  = ?</p>","5","","","","","","","0 + 5 ","5","true","","","","","","","",""
"","","","","","html-keyboard-response","235","2.0.0","661709","null","<p style=""font-size:100px"">0 + 5  = 5</p><p style=""font-size:100px"">Correct!</p>","null","","","","","","","","","","","","","","","","",""
"","","","","","html-keyboard-response","236","2.0.0","663716","null","<p style=""font-size:100px"">Nicholas</p>","null","Nicholas","Face-first","latino","Male","","","","","","positive","","","","","","",""
"","","","","","image-keyboard-response","237","2.0.0","666722","null","./images/LM-223.jpg","null","Nicholas","Face-first","","","./images/LM-223.jpg","","","","","positive","","","","","","",""
"","","","","","html-keyboard-response","238","2.0.0","671729","null","<p style=""font-size:40px; line-height:1.5; margin: 0 50px 0 50px"">Nicholas brings homemade meals for the team when work gets hectic. </p>","null","Nicholas","Face-first","","","","","","","","positive","brings homemade meals for the team when work gets hectic.","","","","","",""
"","","","","","html-keyboard-response","239","2.0.0","673652","1922","<p >how would you rate their behavior? (Rate between 1-7)<p/>
            <p>w1-very untrustworthy, 7-very trustworthy<p/>","7","","","","","","trustworthy_rating","","","","","","","","","","",""
"","","","","","html-keyboard-response","240","2.0.0","675205","1553","<p style=""font-size:100px"">9 - 5 = ?</p>","3","","","","","","","9 - 5","4","false","","","","","","","",""
"","","","","","html-keyboard-response","241","2.0.0","677156","null","<p style=""font-size:100px"">9 - 5 = 4</p><p style=""font-size:100px"">Wrong.</p>","null","","","","","","","","","","","","","","","","",""
"","","","","","html-keyboard-response","242","2.0.0","679162","null","<p style=""font-size:100px"">Andrew</p>","null","Andrew","Bio-first","","","","","","","","negative","","","","","","",""
"","","","","","html-keyboard-response","243","2.0.0","684165","null","<p style=""font-size:40px;line-height:1.5; margin: 0 50px 0 50px"">Andrew cuts in line at crowded cafs, frustrating everyone wiating behind. </p>","null","Andrew","Bio-first","","","","","","","","negative","cuts in line at crowded cafs, frustrating everyone wiating behind.","","","","","",""
"","","","","","image-keyboard-response","244","2.0.0","687170","null","./images/WM-209.jpg","null","Andrew","Bio-first","","","./images/WM-209.jpg","","","","","negative","","","","","","",""
"","","","","","html-keyboard-response","245","2.0.0","689762","2592","<p>how would you rate their behavior? (Rate between 1-7)<p/>
            <p>1-very trustworthy, 7-very untrustworthy<p/>","7","","","","","","trustworthy_rating","","","","","","","","","","",""
"","","","","","html-keyboard-response","246","2.0.0","691174","1410","<p style=""font-size:100px"">5 - 3 = ?</p>","2","","","","","","","5 - 3","2","true","","","","","","","",""
"","","","","","html-keyboard-response","247","2.0.0","693269","null","<p style=""font-size:100px"">5 - 3 = 2</p><p style=""font-size:100px"">Correct!</p>","null","","","","","","","","","","","","","","","","",""
"","","","","","html-keyboard-response","248","2.0.0","695275","null","<p style=""font-size:100px"">Jacob</p>","null","Jacob","control","white","Male","","","","","","","","","","","","",""
"","","","","","image-keyboard-response","249","2.0.0","698281","null","./images/WM-036.jpg","null","Jacob","","","","./images/WM-036.jpg","","","","","","","","","","","",""
"","","","","","html-keyboard-response","250","2.0.0","703286","null","<p style=""font-size:100px"">Jacob</p>","null","","","","","","","","","","","","","","","","",""
"","","","","","html-keyboard-response","251","2.0.0","705208","1921","<p>how would you rate their attractiveness? (Rate between 1-7)<p/>
            <p>1-very unattractive; 7-very attractive<p/>","2","","","","","","attractive_rating","","","","","","","","","","",""
"","","","","","html-keyboard-response","252","2.0.0","707223","2014","<p style=""font-size:100px"">3 + 5  = ?</p>","8","","","","","","","3 + 5 ","8","true","","","","","","","",""
"","","","","","html-keyboard-response","253","2.0.0","708713","null","<p style=""font-size:100px"">3 + 5  = 8</p><p style=""font-size:100px"">Correct!</p>","null","","","","","","","","","","","","","","","","",""
"","","","","","html-keyboard-response","254","2.0.0","710720","null","<p style=""font-size:100px"">Evan</p>","null","Evan","Bio-first","","","","","","","","positive","","","","","","",""
"","","","","","html-keyboard-response","255","2.0.0","715722","null","<p style=""font-size:40px;line-height:1.5; margin: 0 50px 0 50px"">Evan helps neighbors carry large boxes up multiple flights without hesitation. </p>","null","Evan","Bio-first","","","","","","","","positive","helps neighbors carry large boxes up multiple flights without hesitation.","","","","","",""
"","","","","","image-keyboard-response","256","2.0.0","718727","null","./images/AM-229.jpg","null","Evan","Bio-first","","","./images/AM-229.jpg","","","","","positive","","","","","","",""
"","","","","","html-keyboard-response","257","2.0.0","720810","2082","<p>how would you rate their behavior? (Rate between 1-7)<p/>
            <p>1-very trustworthy, 7-very untrustworthy<p/>","1","","","","","","trustworthy_rating","","","","","","","","","","",""
"","","","","","html-keyboard-response","258","2.0.0","722125","1314","<p style=""font-size:100px"">6 - 1 = ?</p>","5","","","","","","","6 - 1","5","true","","","","","","","",""
"","","","","","html-keyboard-response","259","2.0.0","724318","null","<p style=""font-size:100px"">6 - 1 = 5</p><p style=""font-size:100px"">Correct!</p>","null","","","","","","","","","","","","","","","","",""
"","","","","","html-keyboard-response","260","2.0.0","726325","null","<p style=""font-size:100px"">Destiny</p>","null","Destiny","Face-first","white","Female","","","","","","neutral","","","","","","",""
"","","","","","image-keyboard-response","261","2.0.0","729330","null","./images/WF-206.jpg","null","Destiny","Face-first","","","./images/WF-206.jpg","","","","","neutral","","","","","","",""
"","","","","","html-keyboard-response","262","2.0.0","734336","null","<p style=""font-size:40px; line-height:1.5; margin: 0 50px 0 50px"">Destiny rearranges the bedroom closet on Saturdays to keep things organized. </p>","null","Destiny","Face-first","","","","","","","","neutral","rearranges the bedroom closet on Saturdays to keep things organized.","","","","","",""
"","","","","","html-keyboard-response","263","2.0.0","736877","2540","<p >how would you rate their behavior? (Rate between 1-7)<p/>
            <p>w1-very untrustworthy, 7-very trustworthy<p/>","7","","","","","","trustworthy_rating","","","","","","","","","","",""
"","","","","","html-keyboard-response","264","2.0.0","738474","1596","<p style=""font-size:100px"">6 + 2  = ?</p>","7","","","","","","","6 + 2 ","8","false","","","","","","","",""
"","","","","","html-keyboard-response","265","2.0.0","740384","null","<p style=""font-size:100px"">6 + 2  = 8</p><p style=""font-size:100px"">Wrong.</p>","null","","","","","","","","","","","","","","","","",""
"","","","","","html-keyboard-response","266","2.0.0","742391","null","<p style=""font-size:100px"">Jonathan</p>","null","Jonathan","control","white","Male","","","","","","","","","","","","",""
"","","","","","image-keyboard-response","267","2.0.0","745396","null","./images/WM-009.jpg","null","Jonathan","","","","./images/WM-009.jpg","","","","","","","","","","","",""
"","","","","","html-keyboard-response","268","2.0.0","750402","null","<p style=""font-size:100px"">Jonathan</p>","null","","","","","","","","","","","","","","","","",""
"","","","","","html-keyboard-response","269","2.0.0","752116","1713","<p>how would you rate their attractiveness? (Rate between 1-7)<p/>
            <p>1-very unattractive; 7-very attractive<p/>","2","","","","","","attractive_rating","","","","","","","","","","",""
"","","","","","html-keyboard-response","270","2.0.0","753488","1371","<p style=""font-size:100px"">0 + 5  = ?</p>","5","","","","","","","0 + 5 ","5","true","","","","","","","",""
"","","","","","html-keyboard-response","271","2.0.0","755623","null","<p style=""font-size:100px"">0 + 5  = 5</p><p style=""font-size:100px"">Correct!</p>","null","","","","","","","","","","","","","","","","",""
"","","","","","html-keyboard-response","272","2.0.0","757626","null","<p style=""font-size:100px"">Anna</p>","null","Anna","Bio-first","","","","","","","","neutral","","","","","","",""
"","","","","","html-keyboard-response","273","2.0.0","762633","null","<p style=""font-size:40px;line-height:1.5; margin: 0 50px 0 50px"">Anna watches a favorite TV show every Friday evening as a weekly ritual. </p>","null","Anna","Bio-first","","","","","","","","neutral","watches a favorite TV show every Friday evening as a weekly ritual.","","","","","",""
"","","","","","image-keyboard-response","274","2.0.0","765639","null","./images/LF-201.jpg","null","Anna","Bio-first","","","./images/LF-201.jpg","","","","","neutral","","","","","","",""
"","","","","","html-keyboard-response","275","2.0.0","767272","1631","<p>how would you rate their behavior? (Rate between 1-7)<p/>
            <p>1-very trustworthy, 7-very untrustworthy<p/>","1","","","","","","trustworthy_rating","","","","","","","","","","",""
"","","","","","html-keyboard-response","276","2.0.0","768599","1327","<p style=""font-size:100px"">3 + 2  = ?</p>","5","","","","","","","3 + 2 ","5","true","","","","","","","",""
"","","","","","html-keyboard-response","277","2.0.0","770778","null","<p style=""font-size:100px"">3 + 2  = 5</p><p style=""font-size:100px"">Correct!</p>","null","","","","","","","","","","","","","","","","",""
"","","","","","html-keyboard-response","278","2.0.0","772785","null","<p style=""font-size:100px"">Kiatlyn</p>","null","Kiatlyn","Face-first","latino","Female","","","","","","negative","","","","","","",""
"","","","","","image-keyboard-response","279","2.0.0","775793","null","./images/LF-211.jpg","null","Kiatlyn","Face-first","","","./images/LF-211.jpg","","","","","negative","","","","","","",""
"","","","","","html-keyboard-response","280","2.0.0","780794","null","<p style=""font-size:40px; line-height:1.5; margin: 0 50px 0 50px"">Kiatlyn avoids helping friends who carry heavy groceries up long stiarcases. </p>","null","Kiatlyn","Face-first","","","","","","","","negative","avoids helping friends who carry heavy groceries up long stiarcases.","","","","","",""
"","","","","","html-keyboard-response","281","2.0.0","784455","3660","<p >how would you rate their behavior? (Rate between 1-7)<p/>
            <p>w1-very untrustworthy, 7-very trustworthy<p/>","7","","","","","","trustworthy_rating","","","","","","","","","","",""
"","","","","","html-keyboard-response","282","2.0.0","785809","1353","<p style=""font-size:100px"">9 - 0 = ?</p>","9","","","","","","","9 - 0","9","true","","","","","","","",""
"","","","","","html-keyboard-response","283","2.0.0","787962","null","<p style=""font-size:100px"">9 - 0 = 9</p><p style=""font-size:100px"">Correct!</p>","null","","","","","","","","","","","","","","","","",""
"","","","","","html-keyboard-response","284","2.0.0","789969","null","<p style=""font-size:100px"">Emily</p>","null","Emily","control","asian","Female","","","","","","","","","","","","",""
"","","","","","image-keyboard-response","285","2.0.0","792972","null","./images/AF-227.jpg","null","Emily","","","","./images/AF-227.jpg","","","","","","","","","","","",""
"","","","","","html-keyboard-response","286","2.0.0","797978","null","<p style=""font-size:100px"">Emily</p>","null","","","","","","","","","","","","","","","","",""
"","","","","","html-keyboard-response","287","2.0.0","800519","2540","<p>how would you rate their attractiveness? (Rate between 1-7)<p/>
            <p>1-very unattractive; 7-very attractive<p/>","4","","","","","","attractive_rating","","","","","","","","","","",""
"","","","","","html-keyboard-response","288","2.0.0","802492","1972","<p style=""font-size:100px"">9 - 5 = ?</p>","4","","","","","","","9 - 5","4","true","","","","","","","",""
"","","","","","html-keyboard-response","289","2.0.0","804021","null","<p style=""font-size:100px"">9 - 5 = 4</p><p style=""font-size:100px"">Correct!</p>","null","","","","","","","","","","","","","","","","",""
"","","","","","html-keyboard-response","290","2.0.0","806026","null","<p style=""font-size:100px"">Jose</p>","null","Jose","Bio-first","","","","","","","","positive","","","","","","",""
"","","","","","html-keyboard-response","291","2.0.0","811033","null","<p style=""font-size:40px;line-height:1.5; margin: 0 50px 0 50px"">Jose throws surprise birthday parties, complete with balloons and thoughtful gifts. </p>","null","Jose","Bio-first","","","","","","","","positive","throws surprise birthday parties, complete with balloons and thoughtful gifts.","","","","","",""
"","","","","","image-keyboard-response","292","2.0.0","814037","null","./images/LM-200.jpg","null","Jose","Bio-first","","","./images/LM-200.jpg","","","","","positive","","","","","","",""
"","","","","","html-keyboard-response","293","2.0.0","815547","1509","<p>how would you rate their behavior? (Rate between 1-7)<p/>
            <p>1-very trustworthy, 7-very untrustworthy<p/>","1","","","","","","trustworthy_rating","","","","","","","","","","",""
"","","","","","html-keyboard-response","294","2.0.0","816807","1260","<p style=""font-size:100px"">5 + 1  = ?</p>","6","","","","","","","5 + 1 ","6","true","","","","","","","",""
"","","","","","html-keyboard-response","295","2.0.0","819051","null","<p style=""font-size:100px"">5 + 1  = 6</p><p style=""font-size:100px"">Correct!</p>","null","","","","","","","","","","","","","","","","",""
"","","","","","html-keyboard-response","296","2.0.0","821056","null","<p style=""font-size:100px"">Angel</p>","null","Angel","control","asian","Male","","","","","","","","","","","","",""
"","","","","","image-keyboard-response","297","2.0.0","824062","null","./images/AM-231.jpg","null","Angel","","","","./images/AM-231.jpg","","","","","","","","","","","",""
"","","","","","html-keyboard-response","298","2.0.0","829067","null","<p style=""font-size:100px"">Angel</p>","null","","","","","","","","","","","","","","","","",""
"","","","","","html-keyboard-response","299","2.0.0","831157","2089","<p>how would you rate their attractiveness? (Rate between 1-7)<p/>
            <p>1-very unattractive; 7-very attractive<p/>","2","","","","","","attractive_rating","","","","","","","","","","",""
"","","","","","html-keyboard-response","300","2.0.0","833098","1940","<p style=""font-size:100px"">4 - 2 = ?</p>","2","","","","","","","4 - 2","2","true","","","","","","","",""
"","","","","","html-keyboard-response","301","2.0.0","834664","null","<p style=""font-size:100px"">4 - 2 = 2</p><p style=""font-size:100px"">Correct!</p>","null","","","","","","","","","","","","","","","","",""
"","","","","","html-keyboard-response","302","2.0.0","836670","null","<p style=""font-size:100px"">Kaylee</p>","null","Kaylee","Face-first","latino","Female","","","","","","neutral","","","","","","",""
"","","","","","image-keyboard-response","303","2.0.0","839677","null","./images/LF-213.jpg","null","Kaylee","Face-first","","","./images/LF-213.jpg","","","","","neutral","","","","","","",""
"","","","","","html-keyboard-response","304","2.0.0","844682","null","<p style=""font-size:40px; line-height:1.5; margin: 0 50px 0 50px"">Kaylee reads the newspaper each morning while drinking a cup of coffee. </p>","null","Kaylee","Face-first","","","","","","","","neutral","reads the newspaper each morning while drinking a cup of coffee.","","","","","",""
"","","","","","html-keyboard-response","305","2.0.0","846450","1766","<p >how would you rate their behavior? (Rate between 1-7)<p/>
            <p>w1-very untrustworthy, 7-very trustworthy<p/>","6","","","","","","trustworthy_rating","","","","","","","","","","",""
"","","","","","html-keyboard-response","306","2.0.0","847745","1294","<p style=""font-size:100px"">5 - 1 = ?</p>","4","","","","","","","5 - 1","4","true","","","","","","","",""
"","","","","","html-keyboard-response","307","2.0.0","849957","null","<p style=""font-size:100px"">5 - 1 = 4</p><p style=""font-size:100px"">Correct!</p>","null","","","","","","","","","","","","","","","","",""
"","","","","","html-keyboard-response","308","2.0.0","851963","null","<p style=""font-size:100px"">Jessica</p>","null","Jessica","Bio-first","","","","","","","","neutral","","","","","","",""
"","","","","","html-keyboard-response","309","2.0.0","856969","null","<p style=""font-size:40px;line-height:1.5; margin: 0 50px 0 50px"">Jessica strolls around the block after lunch dialy to clear their mind. </p>","null","Jessica","Bio-first","","","","","","","","neutral","strolls around the block after lunch dialy to clear their mind.","","","","","",""
"","","","","","image-keyboard-response","310","2.0.0","859972","null","./images/AF-228.jpg","null","Jessica","Bio-first","","","./images/AF-228.jpg","","","","","neutral","","","","","","",""
"","","","","","html-keyboard-response","311","2.0.0","862429","2456","<p>how would you rate their behavior? (Rate between 1-7)<p/>
            <p>1-very trustworthy, 7-very untrustworthy<p/>","1","","","","","","trustworthy_rating","","","","","","","","","","",""
"","","","","","html-keyboard-response","312","2.0.0","863711","1281","<p style=""font-size:100px"">5 + 2  = ?</p>","6","","","","","","","5 + 2 ","7","false","","","","","","","",""
"","","","","","html-keyboard-response","313","2.0.0","865931","null","<p style=""font-size:100px"">5 + 2  = 7</p><p style=""font-size:100px"">Wrong.</p>","null","","","","","","","","","","","","","","","","",""
"","","","","","html-keyboard-response","314","2.0.0","867936","null","<p style=""font-size:100px"">Alexandra</p>","null","Alexandra","control","white","Female","","","","","","","","","","","","",""
"","","","","","image-keyboard-response","315","2.0.0","870940","null","./images/WF-007.jpg","null","Alexandra","","","","./images/WF-007.jpg","","","","","","","","","","","",""
"","","","","","html-keyboard-response","316","2.0.0","875944","null","<p style=""font-size:100px"">Alexandra</p>","null","","","","","","","","","","","","","","","","",""
"","","","","","html-keyboard-response","317","2.0.0","878322","2377","<p>how would you rate their attractiveness? (Rate between 1-7)<p/>
            <p>1-very unattractive; 7-very attractive<p/>","3","","","","","","attractive_rating","","","","","","","","","","",""
"","","","","","html-keyboard-response","318","2.0.0","880592","2270","<p style=""font-size:100px"">6 + 2  = ?</p>","8","","","","","","","6 + 2 ","8","true","","","","","","","",""
"","","","","","html-keyboard-response","319","2.0.0","881828","null","<p style=""font-size:100px"">6 + 2  = 8</p><p style=""font-size:100px"">Correct!</p>","null","","","","","","","","","","","","","","","","",""
"","","","","","html-keyboard-response","320","2.0.0","883832","null","<p style=""font-size:100px"">Isiaah</p>","null","Isiaah","Face-first","white","Male","","","","","","negative","","","","","","",""
"","","","","","image-keyboard-response","321","2.0.0","886836","null","./images/WM-040.jpg","null","Isiaah","Face-first","","","./images/WM-040.jpg","","","","","negative","","","","","","",""
"","","","","","html-keyboard-response","322","2.0.0","891843","null","<p style=""font-size:40px; line-height:1.5; margin: 0 50px 0 50px"">Isiaah refuses to lower loud music while others try to study. </p>","null","Isiaah","Face-first","","","","","","","","negative","refuses to lower loud music while others try to study.","","","","","",""
"","","","","","html-keyboard-response","323","2.0.0","893853","2009","<p >how would you rate their behavior? (Rate between 1-7)<p/>
            <p>w1-very untrustworthy, 7-very trustworthy<p/>","1","","","","","","trustworthy_rating","","","","","","","","","","",""
"","","","","","html-keyboard-response","324","2.0.0","895139","1285","<p style=""font-size:100px"">1 - 0 = ?</p>","1","","","","","","","1 - 0","1","true","","","","","","","",""
"","","","","","html-keyboard-response","325","2.0.0","897359","null","<p style=""font-size:100px"">1 - 0 = 1</p><p style=""font-size:100px"">Correct!</p>","null","","","","","","","","","","","","","","","","",""
"","","","","","html-keyboard-response","326","2.0.0","899165","1805","You will now watch a short video. Press any key to start."," ","","","","","","","","","","","","","","","","",""
"","","","","","video-keyboard-response","327","2.0.0","1063413","null","[""video.mp4""]","null","","","","","","","","","","","","","","","","",""
"","","","","","html-keyboard-response","328","2.0.0","1094458","31043","<p>Now, you will take a 2-part memory test.<p/>
          <p>Please wait for the experimenter instructions.<p/>
          <p>When prompted, press ""1"" to begin the first memory test.<p/>","1","","","","","","","","","","","","","","","","",""
"","","","","","image-keyboard-response","329","2.0.0","1102479","8020","./images/LF-241.jpg","3","","","","","./images/LF-241.jpg","","","","false","","","recognition","[""7"",""8"",""9""]","3","","",""
"","","","","","image-keyboard-response","330","2.0.0","1104865","2385","./images/AM-229.jpg","3","","","","","./images/AM-229.jpg","","","","false","","","recognition","[""7"",""8"",""9""]","3","","",""
"","","","","","image-keyboard-response","331","2.0.0","1106194","1328","./lure_images/LM-252.jpg","3","","","","","./lure_images/LM-252.jpg","","","","true","","","recognition","[""1"",""2"",""3""]","3","","",""
"","","","","","image-keyboard-response","332","2.0.0","1108542","2347","./lure_images/LM-242.jpg","2","","","","","./lure_images/LM-242.jpg","","","","true","","","recognition","[""1"",""2"",""3""]","2","","",""
"","","","","","image-keyboard-response","333","2.0.0","1116380","7837","./images/WF-007.jpg","8","","","","","./images/WF-007.jpg","","","","true","","","recognition","[""7"",""8"",""9""]","8","","",""
"","","","","","image-keyboard-response","334","2.0.0","1119078","2698","./lure_images/WM-034.jpg","2","","","","","./lure_images/WM-034.jpg","","","","true","","","recognition","[""1"",""2"",""3""]","2","","",""
"","","","","","image-keyboard-response","335","2.0.0","1120563","1483","./lure_images/WF-243.jpg","2","","","","","./lure_images/WF-243.jpg","","","","true","","","recognition","[""1"",""2"",""3""]","2","","",""
"","","","","","image-keyboard-response","336","2.0.0","1121854","1291","./lure_images/WF-218.jpg","2","","","","","./lure_images/WF-218.jpg","","","","true","","","recognition","[""1"",""2"",""3""]","2","","",""
"","","","","","image-keyboard-response","337","2.0.0","1123446","1591","./lure_images/LM-247.jpg","2","","","","","./lure_images/LM-247.jpg","","","","true","","","recognition","[""1"",""2"",""3""]","2","","",""
"","","","","","image-keyboard-response","338","2.0.0","1124848","1401","./lure_images/LF-230.jpg","2","","","","","./lure_images/LF-230.jpg","","","","true","","","recognition","[""1"",""2"",""3""]","2","","",""
"","","","","","image-keyboard-response","339","2.0.0","1127028","2179","./lure_images/LF-228.jpg","2","","","","","./lure_images/LF-228.jpg","","","","true","","","recognition","[""1"",""2"",""3""]","2","","",""
"","","","","","image-keyboard-response","340","2.0.0","1128886","1857","./lure_images/LM-212.jpg","2","","","","","./lure_images/LM-212.jpg","","","","true","","","recognition","[""1"",""2"",""3""]","2","","",""
"","","","","","image-keyboard-response","341","2.0.0","1129994","1107","./lure_images/AF-206.jpg","2","","","","","./lure_images/AF-206.jpg","","","","true","","","recognition","[""1"",""2"",""3""]","2","","",""
"","","","","","image-keyboard-response","342","2.0.0","1132224","2222","./images/WM-200.jpg","2","","","","","./images/WM-200.jpg","","","","false","","","recognition","[""7"",""8"",""9""]","2","","",""
"","","","","","image-keyboard-response","343","2.0.0","1135384","3159","./images/AF-228.jpg","7","","","","","./images/AF-228.jpg","","","","true","","","recognition","[""7"",""8"",""9""]","7","","",""
"","","","","","image-keyboard-response","344","2.0.0","1138691","3306","./images/LM-223.jpg","7","","","","","./images/LM-223.jpg","","","","true","","","recognition","[""7"",""8"",""9""]","7","","",""
"","","","","","image-keyboard-response","345","2.0.0","1141324","2632","./lure_images/AM-253.jpg","3","","","","","./lure_images/AM-253.jpg","","","","true","","","recognition","[""1"",""2"",""3""]","3","","",""
"","","","","","image-keyboard-response","346","2.0.0","1143511","2186","./lure_images/LF-202.jpg","1","","","","","./lure_images/LF-202.jpg","","","","true","","","recognition","[""1"",""2"",""3""]","1","","",""
"","","","","","image-keyboard-response","347","2.0.0","1145730","2218","./images/WF-206.jpg","3","","","","","./images/WF-206.jpg","","","","false","","","recognition","[""7"",""8"",""9""]","3","","",""
"","","","","","image-keyboard-response","348","2.0.0","1147873","2142","./lure_images/LM-216.jpg","3","","","","","./lure_images/LM-216.jpg","","","","true","","","recognition","[""1"",""2"",""3""]","3","","",""
"","","","","","image-keyboard-response","349","2.0.0","1149208","1334","./images/AF-226.jpg","3","","","","","./images/AF-226.jpg","","","","false","","","recognition","[""7"",""8"",""9""]","3","","",""
"","","","","","image-keyboard-response","350","2.0.0","1150384","1175","./lure_images/AF-211.jpg","3","","","","","./lure_images/AF-211.jpg","","","","true","","","recognition","[""1"",""2"",""3""]","3","","",""
"","","","","","image-keyboard-response","351","2.0.0","1152953","2568","./lure_images/LF-223.jpg","2","","","","","./lure_images/LF-223.jpg","","","","true","","","recognition","[""1"",""2"",""3""]","2","","",""
"","","","","","image-keyboard-response","352","2.0.0","1156211","3257","./images/AM-252.jpg","7","","","","","./images/AM-252.jpg","","","","true","","","recognition","[""7"",""8"",""9""]","7","","",""
"","","","","","image-keyboard-response","353","2.0.0","1157839","1626","./lure_images/AF-221.jpg","2","","","","","./lure_images/AF-221.jpg","","","","true","","","recognition","[""1"",""2"",""3""]","2","","",""
"","","","","","image-keyboard-response","354","2.0.0","1159849","2009","./lure_images/LM-244.jpg","2","","","","","./lure_images/LM-244.jpg","","","","true","","","recognition","[""1"",""2"",""3""]","2","","",""
"","","","","","image-keyboard-response","355","2.0.0","1161856","2005","./images/LF-247.jpg","2","","","","","./images/LF-247.jpg","","","","false","","","recognition","[""7"",""8"",""9""]","2","","",""
"","","","","","image-keyboard-response","356","2.0.0","1163320","1463","./lure_images/AM-228.jpg","2","","","","","./lure_images/AM-228.jpg","","","","true","","","recognition","[""1"",""2"",""3""]","2","","",""
"","","","","","image-keyboard-response","357","2.0.0","1166088","2767","./images/LM-210.jpg","7","","","","","./images/LM-210.jpg","","","","true","","","recognition","[""7"",""8"",""9""]","7","","",""
"","","","","","image-keyboard-response","358","2.0.0","1171108","5019","./images/WF-017.jpg","7","","","","","./images/WF-017.jpg","","","","true","","","recognition","[""7"",""8"",""9""]","7","","",""
"","","","","","image-keyboard-response","359","2.0.0","1173301","2192","./images/AM-237.jpg","3","","","","","./images/AM-237.jpg","","","","false","","","recognition","[""7"",""8"",""9""]","3","","",""
"","","","","","image-keyboard-response","360","2.0.0","1176774","3472","./lure_images/AF-208.jpg","3","","","","","./lure_images/AF-208.jpg","","","","true","","","recognition","[""1"",""2"",""3""]","3","","",""
"","","","","","image-keyboard-response","361","2.0.0","1179677","2901","./images/AF-219.jpg","8","","","","","./images/AF-219.jpg","","","","true","","","recognition","[""7"",""8"",""9""]","8","","",""
"","","","","","image-keyboard-response","362","2.0.0","1181723","2045","./lure_images/AF-235.jpg","2","","","","","./lure_images/AF-235.jpg","","","","true","","","recognition","[""1"",""2"",""3""]","2","","",""
"","","","","","image-keyboard-response","363","2.0.0","1183401","1676","./images/AF-225.jpg","2","","","","","./images/AF-225.jpg","","","","false","","","recognition","[""7"",""8"",""9""]","2","","",""
"","","","","","image-keyboard-response","364","2.0.0","1187024","3622","./images/WM-033.jpg","2","","","","","./images/WM-033.jpg","","","","false","","","recognition","[""7"",""8"",""9""]","2","","",""
"","","","","","image-keyboard-response","365","2.0.0","1189887","2862","./images/LM-200.jpg","7","","","","","./images/LM-200.jpg","","","","true","","","recognition","[""7"",""8"",""9""]","7","","",""
"","","","","","image-keyboard-response","366","2.0.0","1191742","1853","./images/LF-213.jpg","2","","","","","./images/LF-213.jpg","","","","false","","","recognition","[""7"",""8"",""9""]","2","","",""
"","","","","","image-keyboard-response","367","2.0.0","1191968","225","./images/WM-036.jpg","1","","","","","./images/WM-036.jpg","","","","false","","","recognition","[""7"",""8"",""9""]","1","","",""
"","","","","","image-keyboard-response","368","2.0.0","1197332","5363","./images/LF-243.jpg","2","","","","","./images/LF-243.jpg","","","","false","","","recognition","[""7"",""8"",""9""]","2","","",""
"","","","","","image-keyboard-response","369","2.0.0","1199004","1671","./images/WM-031.jpg","2","","","","","./images/WM-031.jpg","","","","false","","","recognition","[""7"",""8"",""9""]","2","","",""
"","","","","","image-keyboard-response","370","2.0.0","1200901","1896","./lure_images/WF-011.jpg","1","","","","","./lure_images/WF-011.jpg","","","","true","","","recognition","[""1"",""2"",""3""]","1","","",""
"","","","","","image-keyboard-response","371","2.0.0","1203024","2122","./lure_images/WF-202.jpg","3","","","","","./lure_images/WF-202.jpg","","","","true","","","recognition","[""1"",""2"",""3""]","3","","",""
"","","","","","image-keyboard-response","372","2.0.0","1205058","2032","./images/LM-207.jpg","3","","","","","./images/LM-207.jpg","","","","false","","","recognition","[""7"",""8"",""9""]","3","","",""
"","","","","","image-keyboard-response","373","2.0.0","1207122","2064","./images/AM-231.jpg","7","","","","","./images/AM-231.jpg","","","","true","","","recognition","[""7"",""8"",""9""]","7","","",""
"","","","","","image-keyboard-response","374","2.0.0","1209807","2683","./lure_images/WM-015.jpg","1","","","","","./lure_images/WM-015.jpg","","","","true","","","recognition","[""1"",""2"",""3""]","1","","",""
"","","","","","image-keyboard-response","375","2.0.0","1212085","2277","./images/WF-235.jpg","1","","","","","./images/WF-235.jpg","","","","false","","","recognition","[""7"",""8"",""9""]","1","","",""
"","","","","","image-keyboard-response","376","2.0.0","1213915","1829","./lure_images/WF-231.jpg","1","","","","","./lure_images/WF-231.jpg","","","","true","","","recognition","[""1"",""2"",""3""]","1","","",""
"","","","","","image-keyboard-response","377","2.0.0","1215262","1346","./lure_images/WM-214.jpg","1","","","","","./lure_images/WM-214.jpg","","","","true","","","recognition","[""1"",""2"",""3""]","1","","",""
"","","","","","image-keyboard-response","378","2.0.0","1216429","1166","./lure_images/LF-215.jpg","1","","","","","./lure_images/LF-215.jpg","","","","true","","","recognition","[""1"",""2"",""3""]","1","","",""
"","","","","","image-keyboard-response","379","2.0.0","1218214","1783","./images/AM-202.jpg","1","","","","","./images/AM-202.jpg","","","","false","","","recognition","[""7"",""8"",""9""]","1","","",""
"","","","","","image-keyboard-response","380","2.0.0","1219261","1045","./lure_images/AM-225.jpg","1","","","","","./lure_images/AM-225.jpg","","","","true","","","recognition","[""1"",""2"",""3""]","1","","",""
"","","","","","image-keyboard-response","381","2.0.0","1220516","1254","./images/LF-201.jpg","2","","","","","./images/LF-201.jpg","","","","false","","","recognition","[""7"",""8"",""9""]","2","","",""
"","","","","","image-keyboard-response","382","2.0.0","1222899","2382","./images/WM-209.jpg","2","","","","","./images/WM-209.jpg","","","","false","","","recognition","[""7"",""8"",""9""]","2","","",""
"","","","","","image-keyboard-response","383","2.0.0","1224969","2070","./images/LM-208.jpg","1","","","","","./images/LM-208.jpg","","","","false","","","recognition","[""7"",""8"",""9""]","1","","",""
"","","","","","image-keyboard-response","384","2.0.0","1226226","1256","./lure_images/WF-230.jpg","1","","","","","./lure_images/WF-230.jpg","","","","true","","","recognition","[""1"",""2"",""3""]","1","","",""
"","","","","","image-keyboard-response","385","2.0.0","1227860","1632","./lure_images/AM-250.jpg","1","","","","","./lure_images/AM-250.jpg","","","","true","","","recognition","[""1"",""2"",""3""]","1","","",""
"","","","","","image-keyboard-response","386","2.0.0","1229030","1168","./images/WF-207.jpg","1","","","","","./images/WF-207.jpg","","","","false","","","recognition","[""7"",""8"",""9""]","1","","",""
"","","","","","image-keyboard-response","387","2.0.0","1232272","3241","./lure_images/WF-212.jpg","1","","","","","./lure_images/WF-212.jpg","","","","true","","","recognition","[""1"",""2"",""3""]","1","","",""
"","","","","","image-keyboard-response","388","2.0.0","1235138","2866","./lure_images/WM-032.jpg","1","","","","","./lure_images/WM-032.jpg","","","","true","","","recognition","[""1"",""2"",""3""]","1","","",""
"","","","","","image-keyboard-response","389","2.0.0","1237095","1956","./lure_images/AM-210.jpg","1","","","","","./lure_images/AM-210.jpg","","","","true","","","recognition","[""1"",""2"",""3""]","1","","",""
"","","","","","image-keyboard-response","390","2.0.0","1239298","2202","./images/LF-251.jpg","7","","","","","./images/LF-251.jpg","","","","true","","","recognition","[""7"",""8"",""9""]","7","","",""
"","","","","","image-keyboard-response","391","2.0.0","1241508","2208","./lure_images/WM-250.jpg","2","","","","","./lure_images/WM-250.jpg","","","","true","","","recognition","[""1"",""2"",""3""]","2","","",""
"","","","","","image-keyboard-response","392","2.0.0","1244170","2660","./images/WM-208.jpg","1","","","","","./images/WM-208.jpg","","","","false","","","recognition","[""7"",""8"",""9""]","1","","",""
"","","","","","image-keyboard-response","393","2.0.0","1246127","1956","./images/LM-241.jpg","2","","","","","./images/LM-241.jpg","","","","false","","","recognition","[""7"",""8"",""9""]","2","","",""
"","","","","","image-keyboard-response","394","2.0.0","1248045","1917","./images/WM-009.jpg","1","","","","","./images/WM-009.jpg","","","","false","","","recognition","[""7"",""8"",""9""]","1","","",""
"","","","","","image-keyboard-response","395","2.0.0","1249152","1106","./lure_images/AM-238.jpg","1","","","","","./lure_images/AM-238.jpg","","","","true","","","recognition","[""1"",""2"",""3""]","1","","",""
"","","","","","image-keyboard-response","396","2.0.0","1250814","1661","./lure_images/WM-237.jpg","1","","","","","./lure_images/WM-237.jpg","","","","true","","","recognition","[""1"",""2"",""3""]","1","","",""
"","","","","","image-keyboard-response","397","2.0.0","1252032","1217","./lure_images/WM-234.jpg","1","","","","","./lure_images/WM-234.jpg","","","","true","","","recognition","[""1"",""2"",""3""]","1","","",""
"","","","","","image-keyboard-response","398","2.0.0","1253613","1579","./lure_images/LM-214.jpg","1","","","","","./lure_images/LM-214.jpg","","","","true","","","recognition","[""1"",""2"",""3""]","1","","",""
"","","","","","image-keyboard-response","399","2.0.0","1255165","1551","./lure_images/AF-247.jpg","1","","","","","./lure_images/AF-247.jpg","","","","true","","","recognition","[""1"",""2"",""3""]","1","","",""
"","","","","","image-keyboard-response","400","2.0.0","1256325","1160","./images/AM-211.jpg","1","","","","","./images/AM-211.jpg","","","","false","","","recognition","[""7"",""8"",""9""]","1","","",""
"","","","","","image-keyboard-response","401","2.0.0","1258922","2595","./images/AF-205.jpg","3","","","","","./images/AF-205.jpg","","","","false","","","recognition","[""7"",""8"",""9""]","3","","",""
"","","","","","image-keyboard-response","402","2.0.0","1260867","1944","./lure_images/AM-216.jpg","2","","","","","./lure_images/AM-216.jpg","","","","true","","","recognition","[""1"",""2"",""3""]","2","","",""
"","","","","","image-keyboard-response","403","2.0.0","1262658","1790","./images/WF-214.jpg","1","","","","","./images/WF-214.jpg","","","","false","","","recognition","[""7"",""8"",""9""]","1","","",""
"","","","","","image-keyboard-response","404","2.0.0","1264136","1477","./lure_images/AM-243.jpg","1","","","","","./lure_images/AM-243.jpg","","","","true","","","recognition","[""1"",""2"",""3""]","1","","",""
"","","","","","image-keyboard-response","405","2.0.0","1265167","1030","./images/LM-231.jpg","1","","","","","./images/LM-231.jpg","","","","false","","","recognition","[""7"",""8"",""9""]","1","","",""
"","","","","","image-keyboard-response","406","2.0.0","1266216","1048","./lure_images/WF-213.jpg","1","","","","","./lure_images/WF-213.jpg","","","","true","","","recognition","[""1"",""2"",""3""]","1","","",""
"","","","","","image-keyboard-response","407","2.0.0","1269331","3114","./images/AF-255.jpg","7","","","","","./images/AF-255.jpg","","","","true","","","recognition","[""7"",""8"",""9""]","7","","",""
"","","","","","image-keyboard-response","408","2.0.0","1270533","1201","./lure_images/WF-211.jpg","1","","","","","./lure_images/WF-211.jpg","","","","true","","","recognition","[""1"",""2"",""3""]","1","","",""
"","","","","","image-keyboard-response","409","2.0.0","1274983","4448","./images/WF-244.jpg","7","","","","","./images/WF-244.jpg","","","","true","","","recognition","[""7"",""8"",""9""]","7","","",""
"","","","","","image-keyboard-response","410","2.0.0","1276641","1657","./images/AM-221.jpg","1","","","","","./images/AM-221.jpg","","","","false","","","recognition","[""7"",""8"",""9""]","1","","",""
"","","","","","image-keyboard-response","411","2.0.0","1278399","1757","./lure_images/AM-204.jpg","1","","","","","./lure_images/AM-204.jpg","","","","true","","","recognition","[""1"",""2"",""3""]","1","","",""
"","","","","","image-keyboard-response","412","2.0.0","1279450","1049","./images/WF-027.jpg","7","","","","","./images/WF-027.jpg","","","","true","","","recognition","[""7"",""8"",""9""]","7","","",""
"","","","","","image-keyboard-response","413","2.0.0","1281456","2005","./images/AM-201.jpg","7","","","","","./images/AM-201.jpg","","","","true","","","recognition","[""7"",""8"",""9""]","7","","",""
"","","","","","image-keyboard-response","414","2.0.0","1286189","4731","./lure_images/WM-231.jpg","1","","","","","./lure_images/WM-231.jpg","","","","true","","","recognition","[""1"",""2"",""3""]","1","","",""
"","","","","","image-keyboard-response","415","2.0.0","1287366","1176","./images/LF-211.jpg","1","","","","","./images/LF-211.jpg","","","","false","","","recognition","[""7"",""8"",""9""]","1","","",""
"","","","","","image-keyboard-response","416","2.0.0","1293137","5769","./images/LF-209.jpg","7","","","","","./images/LF-209.jpg","","","","true","","","recognition","[""7"",""8"",""9""]","7","","",""
"","","","","","image-keyboard-response","417","2.0.0","1301173","8035","./images/WM-040.jpg","3","","","","","./images/WM-040.jpg","","","","false","","","recognition","[""7"",""8"",""9""]","3","","",""
"","","","","","image-keyboard-response","418","2.0.0","1302508","1334","./images/AF-227.jpg","2","","","","","./images/AF-227.jpg","","","","false","","","recognition","[""7"",""8"",""9""]","2","","",""
"","","","","","image-keyboard-response","419","2.0.0","1305286","2777","./images/WM-004.jpg","2","","","","","./images/WM-004.jpg","","","","false","","","recognition","[""7"",""8"",""9""]","2","","",""
"","","","","","image-keyboard-response","420","2.0.0","1308638","3351","./images/LF-212.jpg","3","","","","","./images/LF-212.jpg","","","","false","","","recognition","[""7"",""8"",""9""]","3","","",""
"","","","","","image-keyboard-response","421","2.0.0","1313418","4779","./images/AF-244.jpg","7","","","","","./images/AF-244.jpg","","","","true","","","recognition","[""7"",""8"",""9""]","7","","",""
"","","","","","image-keyboard-response","422","2.0.0","1314687","1268","./images/LM-243.jpg","1","","","","","./images/LM-243.jpg","","","","false","","","recognition","[""7"",""8"",""9""]","1","","",""
"","","","","","image-keyboard-response","423","2.0.0","1316146","1457","./lure_images/AF-218.jpg","7","","","","","./lure_images/AF-218.jpg","","","","false","","","recognition","[""1"",""2"",""3""]","7","","",""
"","","","","","image-keyboard-response","424","2.0.0","1318795","2648","./lure_images/LF-239.jpg","2","","","","","./lure_images/LF-239.jpg","","","","true","","","recognition","[""1"",""2"",""3""]","2","","",""
"","","","","","image-keyboard-response","425","2.0.0","1320611","1815","./lure_images/AF-229.jpg","2","","","","","./lure_images/AF-229.jpg","","","","true","","","recognition","[""1"",""2"",""3""]","2","","",""
"","","","","","image-keyboard-response","426","2.0.0","1322218","1606","./lure_images/LF-216.jpg","2","","","","","./lure_images/LF-216.jpg","","","","true","","","recognition","[""1"",""2"",""3""]","2","","",""
"","","","","","image-keyboard-response","427","2.0.0","1324080","1860","./lure_images/LM-224.jpg","1","","","","","./lure_images/LM-224.jpg","","","","true","","","recognition","[""1"",""2"",""3""]","1","","",""
"","","","","","image-keyboard-response","428","2.0.0","1326434","2352","./lure_images/AF-214.jpg","3","","","","","./lure_images/AF-214.jpg","","","","true","","","recognition","[""1"",""2"",""3""]","3","","",""
"","","","","","image-keyboard-response","429","2.0.0","1329125","2690","./images/WF-233.jpg","2","","","","","./images/WF-233.jpg","","","","false","","","recognition","[""7"",""8"",""9""]","2","","",""
"","","","","","image-keyboard-response","430","2.0.0","1330288","1161","./lure_images/LM-248.jpg","2","","","","","./lure_images/LM-248.jpg","","","","true","","","recognition","[""1"",""2"",""3""]","2","","",""
"","","","","","image-keyboard-response","431","2.0.0","1332093","1805","./lure_images/LF-221.jpg","1","","","","","./lure_images/LF-221.jpg","","","","true","","","recognition","[""1"",""2"",""3""]","1","","",""
"","","","","","image-keyboard-response","432","2.0.0","1333502","1407","./lure_images/LF-250.jpg","1","","","","","./lure_images/LF-250.jpg","","","","true","","","recognition","[""1"",""2"",""3""]","1","","",""
"","","","","","image-keyboard-response","433","2.0.0","1334847","1345","./images/AF-252.jpg","1","","","","","./images/AF-252.jpg","","","","false","","","recognition","[""7"",""8"",""9""]","1","","",""
"","","","","","image-keyboard-response","434","2.0.0","1336864","2016","./images/AM-207.jpg","7","","","","","./images/AM-207.jpg","","","","true","","","recognition","[""7"",""8"",""9""]","7","","",""
"","","","","","image-keyboard-response","435","2.0.0","1338351","1486","./lure_images/WM-207.jpg","1","","","","","./lure_images/WM-207.jpg","","","","true","","","recognition","[""1"",""2"",""3""]","1","","",""
"","","","","","image-keyboard-response","436","2.0.0","1339626","1274","./images/LM-239.jpg","1","","","","","./images/LM-239.jpg","","","","false","","","recognition","[""7"",""8"",""9""]","1","","",""
"","","","","","html-keyboard-response","437","2.0.0","1342068","2441","<p>Now, you will take the second part of the memory test.<p/>
          <p>Please wait for the experimenter instructions.<p/>
          <p>When prompted, press ""1"" to begin the second memory test.<p/>","1","","","","","","","","","","","","","","","","",""
"","","","","","html-keyboard-response","438","2.0.0","1342775","null","What's their name?","null","","","","","","","","","","","","","","","","",""
"","","","","","image-keyboard-response","439","2.0.0","1347409","4632","./images/WM-208.jpg","1","Robert","control","white","Male","./images/WM-208.jpg","","","","false","","","recall","","","[""Jacob"",""David"",""Christian"",""Robert"",""Alexander""]","4",""
"","","","","","html-keyboard-response","440","2.0.0","1348112","null","What type of behavior is associated with this person?","null","","","","","","","","","","","","","","","","",""
"","","","","","image-keyboard-response","441","2.0.0","1351011","2896","./images/WM-208.jpg","3","","","","","./images/WM-208.jpg","","","","false","","","behavior","","","","","4"
"","","","","","html-keyboard-response","442","2.0.0","1351712","null","What's their name?","null","","","","","","","","","","","","","","","","",""
"","","","","","image-keyboard-response","443","2.0.0","1356594","4880","./images/AF-255.jpg","4","Katherine","bio-first","asian","Female","./images/AF-255.jpg","","","","false","","","recall","","","[""Maria"",""Katherine"",""Stephanie"",""Jessica"",""Jasmine""]","2",""
"","","","","","html-keyboard-response","444","2.0.0","1357300","null","What type of behavior is associated with this person?","null","","","","","","","","","","","","","","","","",""
"","","","","","image-keyboard-response","445","2.0.0","1360041","2740","./images/AF-255.jpg","3","","","","","./images/AF-255.jpg","","","","false","positive","","behavior","","","","","1"
"","","","","","html-keyboard-response","446","2.0.0","1360746","null","What's their name?","null","","","","","","","","","","","","","","","","",""
"","","","","","image-keyboard-response","447","2.0.0","1363532","2783","./images/AF-228.jpg","5","Jessica","bio-first","asian","Female","./images/AF-228.jpg","","","","true","","","recall","","","[""Jasmine"",""Samantha"",""Anna"",""Katherine"",""Jessica""]","5",""
