"success","timeout","failed_images","failed_audio","failed_video","trial_type","trial_index","plugin_version","time_elapsed","rt","stimulus","response","name","condition","race","gender","behaviorType","image","behavior","question","expression","answer","correct","question_type","correct_answers","participant_response","nameGuesses","nameAnswer","behaviorAnswer"
"true","false","[]","[]","[]","preload","0","2.0.0","4350","","","","","","","","","","","","","","","","","","","",""
"","","","","","html-keyboard-response","1","2.0.0","40180","35829","
      <div style=""font-size:22px;line-height: 1.5; max-width: 1300px; margin: 5%; text-align: center;"">
      <p>During this experiment, you will be shown photographs of different identities, and,
      for some, their associated identity information (e.g., description of their behavior).</p>
      <p>Please try to remember all faces and identity information that has been presented.</p>
      <p>Each identity is equally important to remember, and
      you will be tested on your memory at the end of the experiment.</p>
      <p><b>When you are ready, press any key to begin.</b></p>
    </div>
  "," ","","","","","","","","","","","","","","","","",""
"","","","","","html-keyboard-response","2","2.0.0","42183","null","<p style=""font-size:100px"">Jose</p>","null","Jose","Face-first","latino","Male","negative","","","","","","","","","","","",""
"","","","","","image-keyboard-response","3","2.0.0","45187","null","./images/LM-231.jpg","null","Jose","Face-first","","","negative","./images/LM-231.jpg","","","","","","","","","","",""
"","","","","","html-keyboard-response","4","2.0.0","50190","null","<p style=""font-size:40px; line-height:1.5; margin: 0 50px 0 50px"">Jose criticizes others' ideas without offering constructive feedback. </p>","null","Jose","Face-first","","","negative","","criticizes others' ideas without offering constructive feedback.","","","","","","","","","",""
"","","","","","html-keyboard-response","5","2.0.0","58323","8132","<p >how would you rate their behavior? (Rate between 1-7)<p/>
            <p>1-very untrustworthy, 7-very trustworthy<p/>","3","","","","","","","","trustworthy_rating","","","","","","","","",""
"","","","","","html-keyboard-response","6","2.0.0","60032","1708","<p style=""font-size:100px"">6 - 2 = ?</p>","4","","","","","","","","","6 - 2","4","true","","","","","",""
"","","","","","html-keyboard-response","7","2.0.0","61826","null","<p style=""font-size:100px"">6 - 2 = 4</p><p style=""font-size:100px"">Correct!</p>","null","","","","","","","","","","","","","","","","",""
"","","","","","html-keyboard-response","8","2.0.0","63828","null","<p style=""font-size:100px"">Jessica</p>","null","Jessica","Bio-first","","","neutral","","","","","","","","","","","",""
"","","","","","html-keyboard-response","9","2.0.0","68832","null","<p style=""font-size:40px;line-height:1.5; margin: 0 50px 0 50px"">Jessica takes the car to the wash every weekend to keep it spotless. </p>","null","Jessica","Bio-first","","","neutral","","takes the car to the wash every weekend to keep it spotless.","","","","","","","","","",""
"","","","","","image-keyboard-response","10","2.0.0","71836","null","./images/WF-214.jpg","null","Jessica","Bio-first","","","neutral","./images/WF-214.jpg","","","","","","","","","","",""
"","","","","","html-keyboard-response","11","2.0.0","78682","6846","<p>how would you rate their behavior? (Rate between 1-7)<p/>
            <p>1-very trustworthy, 7-very untrustworthy<p/>","2","","","","","","","","trustworthy_rating","","","","","","","","",""
"","","","","","html-keyboard-response","12","2.0.0","80349","1666","<p style=""font-size:100px"">2 + 3 = ?</p>","5","","","","","","","","","2 + 3","5","true","","","","","",""
"","","","","","html-keyboard-response","13","2.0.0","82185","null","<p style=""font-size:100px"">2 + 3 = 5</p><p style=""font-size:100px"">Correct!</p>","null","","","","","","","","","","","","","","","","",""
"","","","","","html-keyboard-response","14","2.0.0","84189","null","<p style=""font-size:100px"">Sydney</p>","null","Sydney","control","asian","Female","","","","","","","","","","","","",""
"","","","","","image-keyboard-response","15","2.0.0","87193","null","./images/AF-226.jpg","null","Sydney","","","","","./images/AF-226.jpg","","","","","","","","","","",""
"","","","","","html-keyboard-response","16","2.0.0","92195","null","<p style=""font-size:100px"">Sydney</p>","null","","","","","","","","","","","","","","","","",""
"","","","","","html-keyboard-response","17","2.0.0","102049","9853","<p>how would you rate their attractiveness? (Rate between 1-7)<p/>
            <p>1-very unattractive; 7-very attractive<p/>","4","","","","","","","","attractive_rating","","","","","","","","",""
"","","","","","html-keyboard-response","18","2.0.0","103740","1690","<p style=""font-size:100px"">7 - 4 = ?</p>","3","","","","","","","","","7 - 4","3","true","","","","","",""
"","","","","","html-keyboard-response","19","2.0.0","105553","null","<p style=""font-size:100px"">7 - 4 = 3</p><p style=""font-size:100px"">Correct!</p>","null","","","","","","","","","","","","","","","","",""
"","","","","","html-keyboard-response","20","2.0.0","107556","null","<p style=""font-size:100px"">Luke</p>","null","Luke","Bio-first","","","negative","","","","","","","","","","","",""
"","","","","","html-keyboard-response","21","2.0.0","112558","null","<p style=""font-size:40px;line-height:1.5; margin: 0 50px 0 50px"">Luke leaves dirty dishes in the office sink for others to clean. </p>","null","Luke","Bio-first","","","negative","","leaves dirty dishes in the office sink for others to clean.","","","","","","","","","",""
"","","","","","image-keyboard-response","22","2.0.0","115562","null","./images/LM-207.jpg","null","Luke","Bio-first","","","negative","./images/LM-207.jpg","","","","","","","","","","",""
"","","","","","html-keyboard-response","23","2.0.0","118538","2975","<p>how would you rate their behavior? (Rate between 1-7)<p/>
            <p>1-very trustworthy, 7-very untrustworthy<p/>","6","","","","","","","","trustworthy_rating","","","","","","","","",""
"","","","","","html-keyboard-response","24","2.0.0","120709","2170","<p style=""font-size:100px"">4 - 2 = ?</p>","2","","","","","","","","","4 - 2","2","true","","","","","",""
"","","","","","html-keyboard-response","25","2.0.0","122041","null","<p style=""font-size:100px"">4 - 2 = 2</p><p style=""font-size:100px"">Correct!</p>","null","","","","","","","","","","","","","","","","",""
"","","","","","html-keyboard-response","26","2.0.0","124044","null","<p style=""font-size:100px"">Elizabeth</p>","null","Elizabeth","control","asian","Female","","","","","","","","","","","","",""
"","","","","","image-keyboard-response","27","2.0.0","127047","null","./images/AF-252.jpg","null","Elizabeth","","","","","./images/AF-252.jpg","","","","","","","","","","",""
"","","","","","html-keyboard-response","28","2.0.0","132050","null","<p style=""font-size:100px"">Elizabeth</p>","null","","","","","","","","","","","","","","","","",""
"","","","","","html-keyboard-response","29","2.0.0","136869","4818","<p>how would you rate their attractiveness? (Rate between 1-7)<p/>
            <p>1-very unattractive; 7-very attractive<p/>","4","","","","","","","","attractive_rating","","","","","","","","",""
"","","","","","html-keyboard-response","30","2.0.0","139477","2608","<p style=""font-size:100px"">6 + 2  = ?</p>","8","","","","","","","","","6 + 2 ","8","true","","","","","",""
"","","","","","html-keyboard-response","31","2.0.0","140372","null","<p style=""font-size:100px"">6 + 2  = 8</p><p style=""font-size:100px"">Correct!</p>","null","","","","","","","","","","","","","","","","",""
"","","","","","html-keyboard-response","32","2.0.0","142375","null","<p style=""font-size:100px"">Andrea</p>","null","Andrea","Face-first","white","Female","positive","","","","","","","","","","","",""
"","","","","","image-keyboard-response","33","2.0.0","145377","null","./images/WF-233.jpg","null","Andrea","Face-first","","","positive","./images/WF-233.jpg","","","","","","","","","","",""
"","","","","","html-keyboard-response","34","2.0.0","150381","null","<p style=""font-size:40px; line-height:1.5; margin: 0 50px 0 50px"">Andrea surprises coworkers with coffee on busy mornings to boost morale.  </p>","null","Andrea","Face-first","","","positive","","surprises coworkers with coffee on busy mornings to boost morale. ","","","","","","","","","",""
"","","","","","html-keyboard-response","35","2.0.0","154253","3872","<p >how would you rate their behavior? (Rate between 1-7)<p/>
            <p>1-very untrustworthy, 7-very trustworthy<p/>","6","","","","","","","","trustworthy_rating","","","","","","","","",""
"","","","","","html-keyboard-response","36","2.0.0","155681","1427","<p style=""font-size:100px"">6 + 2  = ?</p>","8","","","","","","","","","6 + 2 ","8","true","","","","","",""
"","","","","","html-keyboard-response","37","2.0.0","157756","null","<p style=""font-size:100px"">6 + 2  = 8</p><p style=""font-size:100px"">Correct!</p>","null","","","","","","","","","","","","","","","","",""
"","","","","","html-keyboard-response","38","2.0.0","159759","null","<p style=""font-size:100px"">Andrew</p>","null","Andrew","Bio-first","","","positive","","","","","","","","","","","",""
"","","","","","html-keyboard-response","39","2.0.0","164762","null","<p style=""font-size:40px;line-height:1.5; margin: 0 50px 0 50px"">Andrew prepares hearty dinners for friends when they feel under the weather. </p>","null","Andrew","Bio-first","","","positive","","prepares hearty dinners for friends when they feel under the weather.","","","","","","","","","",""
"","","","","","image-keyboard-response","40","2.0.0","167765","null","./images/WM-040.jpg","null","Andrew","Bio-first","","","positive","./images/WM-040.jpg","","","","","","","","","","",""
"","","","","","html-keyboard-response","41","2.0.0","170187","2421","<p>how would you rate their behavior? (Rate between 1-7)<p/>
            <p>1-very trustworthy, 7-very untrustworthy<p/>","6","","","","","","","","trustworthy_rating","","","","","","","","",""
"","","","","","html-keyboard-response","42","2.0.0","171576","1388","<p style=""font-size:100px"">2 + 3 = ?</p>","5","","","","","","","","","2 + 3","5","true","","","","","",""
"","","","","","html-keyboard-response","43","2.0.0","173690","null","<p style=""font-size:100px"">2 + 3 = 5</p><p style=""font-size:100px"">Correct!</p>","null","","","","","","","","","","","","","","","","",""
"","","","","","html-keyboard-response","44","2.0.0","175692","null","<p style=""font-size:100px"">John</p>","null","John","control","asian","Male","","","","","","","","","","","","",""
"","","","","","image-keyboard-response","45","2.0.0","178695","null","./images/AM-207.jpg","null","John","","","","","./images/AM-207.jpg","","","","","","","","","","",""
"","","","","","html-keyboard-response","46","2.0.0","183698","null","<p style=""font-size:100px"">John</p>","null","","","","","","","","","","","","","","","","",""
"","","","","","html-keyboard-response","47","2.0.0","187546","3848","<p>how would you rate their attractiveness? (Rate between 1-7)<p/>
            <p>1-very unattractive; 7-very attractive<p/>","3","","","","","","","","attractive_rating","","","","","","","","",""
"","","","","","html-keyboard-response","48","2.0.0","189186","1640","<p style=""font-size:100px"">1 + 3  = ?</p>","4","","","","","","","","","1 + 3 ","4","true","","","","","",""
"","","","","","html-keyboard-response","49","2.0.0","191048","null","<p style=""font-size:100px"">1 + 3  = 4</p><p style=""font-size:100px"">Correct!</p>","null","","","","","","","","","","","","","","","","",""
"","","","","","html-keyboard-response","50","2.0.0","193051","null","<p style=""font-size:100px"">Anna</p>","null","Anna","Face-first","white","Female","neutral","","","","","","","","","","","",""
"","","","","","image-keyboard-response","51","2.0.0","196053","null","./images/WF-027.jpg","null","Anna","Face-first","","","neutral","./images/WF-027.jpg","","","","","","","","","","",""
"","","","","","html-keyboard-response","52","2.0.0","201056","null","<p style=""font-size:40px; line-height:1.5; margin: 0 50px 0 50px"">Anna schedules a monthly check-up with the dentist to maintain oral health. </p>","null","Anna","Face-first","","","neutral","","schedules a monthly check-up with the dentist to maintain oral health.","","","","","","","","","",""
"","","","","","html-keyboard-response","53","2.0.0","204278","3221","<p >how would you rate their behavior? (Rate between 1-7)<p/>
            <p>1-very untrustworthy, 7-very trustworthy<p/>","6","","","","","","","","trustworthy_rating","","","","","","","","",""
"","","","","","html-keyboard-response","54","2.0.0","206112","1834","<p style=""font-size:100px"">8 - 0 = ?</p>","8","","","","","","","","","8 - 0","8","true","","","","","",""
"","","","","","html-keyboard-response","55","2.0.0","207780","null","<p style=""font-size:100px"">8 - 0 = 8</p><p style=""font-size:100px"">Correct!</p>","null","","","","","","","","","","","","","","","","",""
"","","","","","html-keyboard-response","56","2.0.0","209781","null","<p style=""font-size:100px"">Madison</p>","null","Madison","control","latino","Female","","","","","","","","","","","","",""
"","","","","","image-keyboard-response","57","2.0.0","212784","null","./images/LF-212.jpg","null","Madison","","","","","./images/LF-212.jpg","","","","","","","","","","",""
"","","","","","html-keyboard-response","58","2.0.0","217786","null","<p style=""font-size:100px"">Madison</p>","null","","","","","","","","","","","","","","","","",""
"","","","","","html-keyboard-response","59","2.0.0","220831","3045","<p>how would you rate their attractiveness? (Rate between 1-7)<p/>
            <p>1-very unattractive; 7-very attractive<p/>","4","","","","","","","","attractive_rating","","","","","","","","",""
"","","","","","html-keyboard-response","60","2.0.0","222949","2117","<p style=""font-size:100px"">6 - 0 = ?</p>","6","","","","","","","","","6 - 0","6","true","","","","","",""
"","","","","","html-keyboard-response","61","2.0.0","224335","null","<p style=""font-size:100px"">6 - 0 = 6</p><p style=""font-size:100px"">Correct!</p>","null","","","","","","","","","","","","","","","","",""
"","","","","","html-keyboard-response","62","2.0.0","226338","null","<p style=""font-size:100px"">Cameron</p>","null","Cameron","Face-first","white","Male","neutral","","","","","","","","","","","",""
"","","","","","image-keyboard-response","63","2.0.0","229341","null","./images/WM-033.jpg","null","Cameron","Face-first","","","neutral","./images/WM-033.jpg","","","","","","","","","","",""
"","","","","","html-keyboard-response","64","2.0.0","234345","null","<p style=""font-size:40px; line-height:1.5; margin: 0 50px 0 50px"">Cameron cooks fresh pasta dinners on Sunday evenings as a weekend treat. </p>","null","Cameron","Face-first","","","neutral","","cooks fresh pasta dinners on Sunday evenings as a weekend treat.","","","","","","","","","",""
"","","","","","html-keyboard-response","65","2.0.0","235938","1593","<p >how would you rate their behavior? (Rate between 1-7)<p/>
            <p>1-very untrustworthy, 7-very trustworthy<p/>","5","","","","","","","","trustworthy_rating","","","","","","","","",""
"","","","","","html-keyboard-response","66","2.0.0","237784","1845","<p style=""font-size:100px"">6 - 1 = ?</p>","5","","","","","","","","","6 - 1","5","true","","","","","",""
"","","","","","html-keyboard-response","67","2.0.0","239442","null","<p style=""font-size:100px"">6 - 1 = 5</p><p style=""font-size:100px"">Correct!</p>","null","","","","","","","","","","","","","","","","",""
"","","","","","html-keyboard-response","68","2.0.0","241444","null","<p style=""font-size:100px"">Anthony</p>","null","Anthony","Bio-first","","","positive","","","","","","","","","","","",""
"","","","","","html-keyboard-response","69","2.0.0","246447","null","<p style=""font-size:40px;line-height:1.5; margin: 0 50px 0 50px"">Anthony stays late to help friends finish up big projects. </p>","null","Anthony","Bio-first","","","positive","","stays late to help friends finish up big projects.","","","","","","","","","",""
"","","","","","image-keyboard-response","70","2.0.0","249450","null","./images/AM-201.jpg","null","Anthony","Bio-first","","","positive","./images/AM-201.jpg","","","","","","","","","","",""
"","","","","","html-keyboard-response","71","2.0.0","253712","4261","<p>how would you rate their behavior? (Rate between 1-7)<p/>
            <p>1-very trustworthy, 7-very untrustworthy<p/>","7","","","","","","","","trustworthy_rating","","","","","","","","",""
"","","","","","html-keyboard-response","72","2.0.0","255483","1770","<p style=""font-size:100px"">1 + 5  = ?</p>","6","","","","","","","","","1 + 5 ","6","true","","","","","",""
"","","","","","html-keyboard-response","73","2.0.0","257215","null","<p style=""font-size:100px"">1 + 5  = 6</p><p style=""font-size:100px"">Correct!</p>","null","","","","","","","","","","","","","","","","",""
"","","","","","html-keyboard-response","74","2.0.0","259217","null","<p style=""font-size:100px"">Jordan</p>","null","Jordan","Face-first","white","Male","positive","","","","","","","","","","","",""
"","","","","","image-keyboard-response","75","2.0.0","262220","null","./images/WM-200.jpg","null","Jordan","Face-first","","","positive","./images/WM-200.jpg","","","","","","","","","","",""
"","","","","","html-keyboard-response","76","2.0.0","267222","null","<p style=""font-size:40px; line-height:1.5; margin: 0 50px 0 50px"">Jordan brings homemade meals for the team when work gets hectic. </p>","null","Jordan","Face-first","","","positive","","brings homemade meals for the team when work gets hectic.","","","","","","","","","",""
"","","","","","html-keyboard-response","77","2.0.0","269369","2147","<p >how would you rate their behavior? (Rate between 1-7)<p/>
            <p>1-very untrustworthy, 7-very trustworthy<p/>","7","","","","","","","","trustworthy_rating","","","","","","","","",""
"","","","","","html-keyboard-response","78","2.0.0","270626","1256","<p style=""font-size:100px"">1 - 0 = ?</p>","1","","","","","","","","","1 - 0","1","true","","","","","",""
"","","","","","html-keyboard-response","79","2.0.0","272871","null","<p style=""font-size:100px"">1 - 0 = 1</p><p style=""font-size:100px"">Correct!</p>","null","","","","","","","","","","","","","","","","",""
"","","","","","html-keyboard-response","80","2.0.0","274872","null","<p style=""font-size:100px"">Megan</p>","null","Megan","Bio-first","","","negative","","","","","","","","","","","",""
"","","","","","html-keyboard-response","81","2.0.0","279875","null","<p style=""font-size:40px;line-height:1.5; margin: 0 50px 0 50px"">Megan frequently speaks over others in group discussions, disregarding their input </p>","null","Megan","Bio-first","","","negative","","frequently speaks over others in group discussions, disregarding their input","","","","","","","","","",""
"","","","","","image-keyboard-response","82","2.0.0","282878","null","./images/WF-244.jpg","null","Megan","Bio-first","","","negative","./images/WF-244.jpg","","","","","","","","","","",""
"","","","","","html-keyboard-response","83","2.0.0","285436","2557","<p>how would you rate their behavior? (Rate between 1-7)<p/>
            <p>1-very trustworthy, 7-very untrustworthy<p/>","2","","","","","","","","trustworthy_rating","","","","","","","","",""
"","","","","","html-keyboard-response","84","2.0.0","287447","2010","<p style=""font-size:100px"">3 + 5  = ?</p>","8","","","","","","","","","3 + 5 ","8","true","","","","","",""
"","","","","","html-keyboard-response","85","2.0.0","288938","null","<p style=""font-size:100px"">3 + 5  = 8</p><p style=""font-size:100px"">Correct!</p>","null","","","","","","","","","","","","","","","","",""
"","","","","","html-keyboard-response","86","2.0.0","290940","null","<p style=""font-size:100px"">Caleb</p>","null","Caleb","control","asian","Male","","","","","","","","","","","","",""
"","","","","","image-keyboard-response","87","2.0.0","293942","null","./images/AM-202.jpg","null","Caleb","","","","","./images/AM-202.jpg","","","","","","","","","","",""
"","","","","","html-keyboard-response","88","2.0.0","298945","null","<p style=""font-size:100px"">Caleb</p>","null","","","","","","","","","","","","","","","","",""
"","","","","","html-keyboard-response","89","2.0.0","302983","4038","<p>how would you rate their attractiveness? (Rate between 1-7)<p/>
            <p>1-very unattractive; 7-very attractive<p/>","5","","","","","","","","attractive_rating","","","","","","","","",""
"","","","","","html-keyboard-response","90","2.0.0","304860","1876","<p style=""font-size:100px"">1 + 2  = ?</p>","3","","","","","","","","","1 + 2 ","3","true","","","","","",""
"","","","","","html-keyboard-response","91","2.0.0","306486","null","<p style=""font-size:100px"">1 + 2  = 3</p><p style=""font-size:100px"">Correct!</p>","null","","","","","","","","","","","","","","","","",""
"","","","","","html-keyboard-response","92","2.0.0","308490","null","<p style=""font-size:100px"">Joseph</p>","null","Joseph","control","white","Male","","","","","","","","","","","","",""
"","","","","","image-keyboard-response","93","2.0.0","311492","null","./images/WM-209.jpg","null","Joseph","","","","","./images/WM-209.jpg","","","","","","","","","","",""
"","","","","","html-keyboard-response","94","2.0.0","316495","null","<p style=""font-size:100px"">Joseph</p>","null","","","","","","","","","","","","","","","","",""
"","","","","","html-keyboard-response","95","2.0.0","318856","2360","<p>how would you rate their attractiveness? (Rate between 1-7)<p/>
            <p>1-very unattractive; 7-very attractive<p/>","4","","","","","","","","attractive_rating","","","","","","","","",""
"","","","","","html-keyboard-response","96","2.0.0","320006","1150","<p style=""font-size:100px"">1 + 3  = ?</p>","4","","","","","","","","","1 + 3 ","4","true","","","","","",""
"","","","","","html-keyboard-response","97","2.0.0","322358","null","<p style=""font-size:100px"">1 + 3  = 4</p><p style=""font-size:100px"">Correct!</p>","null","","","","","","","","","","","","","","","","",""
"","","","","","html-keyboard-response","98","2.0.0","324361","null","<p style=""font-size:100px"">Katherine</p>","null","Katherine","Face-first","white","Female","negative","","","","","","","","","","","",""
"","","","","","image-keyboard-response","99","2.0.0","327364","null","./images/WF-007.jpg","null","Katherine","Face-first","","","negative","./images/WF-007.jpg","","","","","","","","","","",""
"","","","","","html-keyboard-response","100","2.0.0","332367","null","<p style=""font-size:40px; line-height:1.5; margin: 0 50px 0 50px"">Katherine borrows items from friends and returns them noticeably damaged. </p>","null","Katherine","Face-first","","","negative","","borrows items from friends and returns them noticeably damaged.","","","","","","","","","",""
"","","","","","html-keyboard-response","101","2.0.0","334476","2108","<p >how would you rate their behavior? (Rate between 1-7)<p/>
            <p>1-very untrustworthy, 7-very trustworthy<p/>","3","","","","","","","","trustworthy_rating","","","","","","","","",""
"","","","","","html-keyboard-response","102","2.0.0","336439","1963","<p style=""font-size:100px"">5 + 2  = ?</p>","7","","","","","","","","","5 + 2 ","7","true","","","","","",""
"","","","","","html-keyboard-response","103","2.0.0","337979","null","<p style=""font-size:100px"">5 + 2  = 7</p><p style=""font-size:100px"">Correct!</p>","null","","","","","","","","","","","","","","","","",""
"","","","","","html-keyboard-response","104","2.0.0","339982","null","<p style=""font-size:100px"">Michael</p>","null","Michael","Bio-first","","","neutral","","","","","","","","","","","",""
"","","","","","html-keyboard-response","105","2.0.0","344985","null","<p style=""font-size:40px;line-height:1.5; margin: 0 50px 0 50px"">Michael reads mystery novels in the park every Sunday, rain or shine. </p>","null","Michael","Bio-first","","","neutral","","reads mystery novels in the park every Sunday, rain or shine.","","","","","","","","","",""
"","","","","","image-keyboard-response","106","2.0.0","347988","null","./images/WM-004.jpg","null","Michael","Bio-first","","","neutral","./images/WM-004.jpg","","","","","","","","","","",""
"","","","","","html-keyboard-response","107","2.0.0","350750","2761","<p>how would you rate their behavior? (Rate between 1-7)<p/>
            <p>1-very trustworthy, 7-very untrustworthy<p/>","5","","","","","","","","trustworthy_rating","","","","","","","","",""
"","","","","","html-keyboard-response","108","2.0.0","351733","983","<p style=""font-size:100px"">1 + 2  = ?</p>","3","","","","","","","","","1 + 2 ","3","true","","","","","",""
"","","","","","html-keyboard-response","109","2.0.0","354251","null","<p style=""font-size:100px"">1 + 2  = 3</p><p style=""font-size:100px"">Correct!</p>","null","","","","","","","","","","","","","","","","",""
"","","","","","html-keyboard-response","110","2.0.0","356254","null","<p style=""font-size:100px"">Brandon</p>","null","Brandon","Bio-first","","","positive","","","","","","","","","","","",""
"","","","","","html-keyboard-response","111","2.0.0","361256","null","<p style=""font-size:40px;line-height:1.5; margin: 0 50px 0 50px"">Brandon throws birthday parties for children in hospitals. </p>","null","Brandon","Bio-first","","","positive","","throws birthday parties for children in hospitals.","","","","","","","","","",""
"","","","","","image-keyboard-response","112","2.0.0","364260","null","./images/LM-200.jpg","null","Brandon","Bio-first","","","positive","./images/LM-200.jpg","","","","","","","","","","",""
"","","","","","html-keyboard-response","113","2.0.0","367557","3296","<p>how would you rate their behavior? (Rate between 1-7)<p/>
            <p>1-very trustworthy, 7-very untrustworthy<p/>","3","","","","","","","","trustworthy_rating","","","","","","","","",""
"","","","","","html-keyboard-response","114","2.0.0","368980","1423","<p style=""font-size:100px"">1 - 0 = ?</p>","1","","","","","","","","","1 - 0","1","true","","","","","",""
"","","","","","html-keyboard-response","115","2.0.0","371059","null","<p style=""font-size:100px"">1 - 0 = 1</p><p style=""font-size:100px"">Correct!</p>","null","","","","","","","","","","","","","","","","",""
"","","","","","html-keyboard-response","116","2.0.0","373062","null","<p style=""font-size:100px"">Mackenzie</p>","null","Mackenzie","control","asian","Female","","","","","","","","","","","","",""
"","","","","","image-keyboard-response","117","2.0.0","376063","null","./images/AF-225.jpg","null","Mackenzie","","","","","./images/AF-225.jpg","","","","","","","","","","",""
"","","","","","html-keyboard-response","118","2.0.0","381065","null","<p style=""font-size:100px"">Mackenzie</p>","null","","","","","","","","","","","","","","","","",""
"","","","","","html-keyboard-response","119","2.0.0","389244","8178","<p>how would you rate their attractiveness? (Rate between 1-7)<p/>
            <p>1-very unattractive; 7-very attractive<p/>","3","","","","","","","","attractive_rating","","","","","","","","",""
"","","","","","html-keyboard-response","120","2.0.0","391470","2225","<p style=""font-size:100px"">5 + 1  = ?</p>","6","","","","","","","","","5 + 1 ","6","true","","","","","",""
"","","","","","html-keyboard-response","121","2.0.0","392748","null","<p style=""font-size:100px"">5 + 1  = 6</p><p style=""font-size:100px"">Correct!</p>","null","","","","","","","","","","","","","","","","",""
"","","","","","html-keyboard-response","122","2.0.0","394749","null","<p style=""font-size:100px"">Angel</p>","null","Angel","Face-first","latino","Male","neutral","","","","","","","","","","","",""
"","","","","","image-keyboard-response","123","2.0.0","397752","null","./images/LM-223.jpg","null","Angel","Face-first","","","neutral","./images/LM-223.jpg","","","","","","","","","","",""
"","","","","","html-keyboard-response","124","2.0.0","402756","null","<p style=""font-size:40px; line-height:1.5; margin: 0 50px 0 50px"">Angel watches nature documentaries after dinner each night to relax. </p>","null","Angel","Face-first","","","neutral","","watches nature documentaries after dinner each night to relax.","","","","","","","","","",""
"","","","","","html-keyboard-response","125","2.0.0","408069","5313","<p >how would you rate their behavior? (Rate between 1-7)<p/>
            <p>1-very untrustworthy, 7-very trustworthy<p/>","3","","","","","","","","trustworthy_rating","","","","","","","","",""
"","","","","","html-keyboard-response","126","2.0.0","409471","1402","<p style=""font-size:100px"">5 + 1  = ?</p>","6","","","","","","","","","5 + 1 ","6","true","","","","","",""
"","","","","","html-keyboard-response","127","2.0.0","411572","null","<p style=""font-size:100px"">5 + 1  = 6</p><p style=""font-size:100px"">Correct!</p>","null","","","","","","","","","","","","","","","","",""
"","","","","","html-keyboard-response","128","2.0.0","413575","null","<p style=""font-size:100px"">Nicole</p>","null","Nicole","Bio-first","","","neutral","","","","","","","","","","","",""
"","","","","","html-keyboard-response","129","2.0.0","418578","null","<p style=""font-size:40px;line-height:1.5; margin: 0 50px 0 50px"">Nicole rearranges the bedroom closet on Saturdays to keep things organized. </p>","null","Nicole","Bio-first","","","neutral","","rearranges the bedroom closet on Saturdays to keep things organized.","","","","","","","","","",""
"","","","","","image-keyboard-response","130","2.0.0","421581","null","./images/AF-244.jpg","null","Nicole","Bio-first","","","neutral","./images/AF-244.jpg","","","","","","","","","","",""
"","","","","","html-keyboard-response","131","2.0.0","424312","2730","<p>how would you rate their behavior? (Rate between 1-7)<p/>
            <p>1-very trustworthy, 7-very untrustworthy<p/>","3","","","","","","","","trustworthy_rating","","","","","","","","",""
"","","","","","html-keyboard-response","132","2.0.0","425763","1451","<p style=""font-size:100px"">6 + 2  = ?</p>","8","","","","","","","","","6 + 2 ","8","true","","","","","",""
"","","","","","html-keyboard-response","133","2.0.0","427814","null","<p style=""font-size:100px"">6 + 2  = 8</p><p style=""font-size:100px"">Correct!</p>","null","","","","","","","","","","","","","","","","",""
"","","","","","html-keyboard-response","134","2.0.0","429816","null","<p style=""font-size:100px"">Aaron</p>","null","Aaron","Face-first","white","Male","negative","","","","","","","","","","","",""
"","","","","","image-keyboard-response","135","2.0.0","432818","null","./images/WM-036.jpg","null","Aaron","Face-first","","","negative","./images/WM-036.jpg","","","","","","","","","","",""
"","","","","","html-keyboard-response","136","2.0.0","437822","null","<p style=""font-size:40px; line-height:1.5; margin: 0 50px 0 50px"">Aaron interrupts others during meetings, taking over conversations without notice. </p>","null","Aaron","Face-first","","","negative","","interrupts others during meetings, taking over conversations without notice.","","","","","","","","","",""
"","","","","","html-keyboard-response","137","2.0.0","440287","2464","<p >how would you rate their behavior? (Rate between 1-7)<p/>
            <p>1-very untrustworthy, 7-very trustworthy<p/>","4","","","","","","","","trustworthy_rating","","","","","","","","",""
"","","","","","html-keyboard-response","138","2.0.0","442882","2595","<p style=""font-size:100px"">1 + 1  = ?</p>","2","","","","","","","","","1 + 1 ","2","true","","","","","",""
"","","","","","html-keyboard-response","139","2.0.0","443790","null","<p style=""font-size:100px"">1 + 1  = 2</p><p style=""font-size:100px"">Correct!</p>","null","","","","","","","","","","","","","","","","",""
"","","","","","html-keyboard-response","140","2.0.0","445793","null","<p style=""font-size:100px"">Savannah</p>","null","Savannah","control","latino","Female","","","","","","","","","","","","",""
"","","","","","image-keyboard-response","141","2.0.0","448796","null","./images/LF-241.jpg","null","Savannah","","","","","./images/LF-241.jpg","","","","","","","","","","",""
"","","","","","html-keyboard-response","142","2.0.0","453799","null","<p style=""font-size:100px"">Savannah</p>","null","","","","","","","","","","","","","","","","",""
"","","","","","html-keyboard-response","143","2.0.0","456875","3075","<p>how would you rate their attractiveness? (Rate between 1-7)<p/>
            <p>1-very unattractive; 7-very attractive<p/>","6","","","","","","","","attractive_rating","","","","","","","","",""
"","","","","","html-keyboard-response","144","2.0.0","459002","2127","<p style=""font-size:100px"">4 - 0 = ?</p>","4","","","","","","","","","4 - 0","4","true","","","","","",""
"","","","","","html-keyboard-response","145","2.0.0","460378","null","<p style=""font-size:100px"">4 - 0 = 4</p><p style=""font-size:100px"">Correct!</p>","null","","","","","","","","","","","","","","","","",""
"","","","","","html-keyboard-response","146","2.0.0","462379","null","<p style=""font-size:100px"">Kaitlyn</p>","null","Kaitlyn","Bio-first","","","negative","","","","","","","","","","","",""
"","","","","","html-keyboard-response","147","2.0.0","467381","null","<p style=""font-size:40px;line-height:1.5; margin: 0 50px 0 50px"">Kaitlyn ignores group messages that ask for help organizing events. </p>","null","Kaitlyn","Bio-first","","","negative","","ignores group messages that ask for help organizing events.","","","","","","","","","",""
"","","","","","image-keyboard-response","148","2.0.0","470383","null","./images/LF-251.jpg","null","Kaitlyn","Bio-first","","","negative","./images/LF-251.jpg","","","","","","","","","","",""
"","","","","","html-keyboard-response","149","2.0.0","473048","2664","<p>how would you rate their behavior? (Rate between 1-7)<p/>
            <p>1-very trustworthy, 7-very untrustworthy<p/>","6","","","","","","","","trustworthy_rating","","","","","","","","",""
"","","","","","html-keyboard-response","150","2.0.0","474726","1678","<p style=""font-size:100px"">5 - 5 = ?</p>","0","","","","","","","","","5 - 5","0","true","","","","","",""
"","","","","","html-keyboard-response","151","2.0.0","476550","null","<p style=""font-size:100px"">5 - 5 = 0</p><p style=""font-size:100px"">Correct!</p>","null","","","","","","","","","","","","","","","","",""
"","","","","","html-keyboard-response","152","2.0.0","478553","null","<p style=""font-size:100px"">Benjamin</p>","null","Benjamin","control","white","Male","","","","","","","","","","","","",""
"","","","","","image-keyboard-response","153","2.0.0","481556","null","./images/WM-031.jpg","null","Benjamin","","","","","./images/WM-031.jpg","","","","","","","","","","",""
"","","","","","html-keyboard-response","154","2.0.0","486557","null","<p style=""font-size:100px"">Benjamin</p>","null","","","","","","","","","","","","","","","","",""
"","","","","","html-keyboard-response","155","2.0.0","490674","4116","<p>how would you rate their attractiveness? (Rate between 1-7)<p/>
            <p>1-very unattractive; 7-very attractive<p/>","3","","","","","","","","attractive_rating","","","","","","","","",""
"","","","","","html-keyboard-response","156","2.0.0","493675","null","<p style=""font-size:100px"">8 - 6 = ?</p>","null","","","","","","","","","8 - 6","2","false","","","","","",""
"","","","","","html-keyboard-response","157","2.0.0","494178","null","<p style=""font-size:100px"">8 - 6 = 2</p><p style=""font-size:100px"">Wrong.</p>","null","","","","","","","","","","","","","","","","",""
"","","","","","html-keyboard-response","158","2.0.0","496180","null","<p style=""font-size:100px"">Ava</p>","null","Ava","Face-first","asian","Female","positive","","","","","","","","","","","",""
"","","","","","image-keyboard-response","159","2.0.0","499183","null","./images/AF-228.jpg","null","Ava","Face-first","","","positive","./images/AF-228.jpg","","","","","","","","","","",""
"","","","","","html-keyboard-response","160","2.0.0","504186","null","<p style=""font-size:40px; line-height:1.5; margin: 0 50px 0 50px"">Ava sends thoughtful thank-you notes to coworkers for their support on projects. </p>","null","Ava","Face-first","","","positive","","sends thoughtful thank-you notes to coworkers for their support on projects.","","","","","","","","","",""
"","","","","","html-keyboard-response","161","2.0.0","508520","4333","<p >how would you rate their behavior? (Rate between 1-7)<p/>
            <p>1-very untrustworthy, 7-very trustworthy<p/>","6","","","","","","","","trustworthy_rating","","","","","","","","",""
"","","","","","html-keyboard-response","162","2.0.0","510039","1518","<p style=""font-size:100px"">5 - 3 = ?</p>","2","","","","","","","","","5 - 3","2","true","","","","","",""
"","","","","","html-keyboard-response","163","2.0.0","512023","null","<p style=""font-size:100px"">5 - 3 = 2</p><p style=""font-size:100px"">Correct!</p>","null","","","","","","","","","","","","","","","","",""
"","","","","","html-keyboard-response","164","2.0.0","514025","null","<p style=""font-size:100px"">Hunter</p>","null","Hunter","control","latino","Male","","","","","","","","","","","","",""
"","","","","","image-keyboard-response","165","2.0.0","517029","null","./images/LM-208.jpg","null","Hunter","","","","","./images/LM-208.jpg","","","","","","","","","","",""
"","","","","","html-keyboard-response","166","2.0.0","522031","null","<p style=""font-size:100px"">Hunter</p>","null","","","","","","","","","","","","","","","","",""
"","","","","","html-keyboard-response","167","2.0.0","529702","7670","<p>how would you rate their attractiveness? (Rate between 1-7)<p/>
            <p>1-very unattractive; 7-very attractive<p/>","4","","","","","","","","attractive_rating","","","","","","","","",""
"","","","","","html-keyboard-response","168","2.0.0","531391","1689","<p style=""font-size:100px"">8 - 0 = ?</p>","8","","","","","","","","","8 - 0","8","true","","","","","",""
"","","","","","html-keyboard-response","169","2.0.0","533204","null","<p style=""font-size:100px"">8 - 0 = 8</p><p style=""font-size:100px"">Correct!</p>","null","","","","","","","","","","","","","","","","",""
"","","","","","html-keyboard-response","170","2.0.0","535206","null","<p style=""font-size:100px"">Jacob</p>","null","Jacob","Bio-first","","","neutral","","","","","","","","","","","",""
"","","","","","html-keyboard-response","171","2.0.0","540208","null","<p style=""font-size:40px;line-height:1.5; margin: 0 50px 0 50px"">Jacob reads the newspaper each morning while drinking a cup of coffee. </p>","null","Jacob","Bio-first","","","neutral","","reads the newspaper each morning while drinking a cup of coffee.","","","","","","","","","",""
"","","","","","image-keyboard-response","172","2.0.0","543210","null","./images/LM-241.jpg","null","Jacob","Bio-first","","","neutral","./images/LM-241.jpg","","","","","","","","","","",""
"","","","","","html-keyboard-response","173","2.0.0","545421","2211","<p>how would you rate their behavior? (Rate between 1-7)<p/>
            <p>1-very trustworthy, 7-very untrustworthy<p/>","3","","","","","","","","trustworthy_rating","","","","","","","","",""
"","","","","","html-keyboard-response","174","2.0.0","546614","1192","<p style=""font-size:100px"">3 + 5  = ?</p>","8","","","","","","","","","3 + 5 ","8","true","","","","","",""
"","","","","","html-keyboard-response","175","2.0.0","548924","null","<p style=""font-size:100px"">3 + 5  = 8</p><p style=""font-size:100px"">Correct!</p>","null","","","","","","","","","","","","","","","","",""
"","","","","","html-keyboard-response","176","2.0.0","550936","null","<p style=""font-size:100px"">Isaiah</p>","null","Isaiah","Face-first","asian","Male","negative","","","","","","","","","","","",""
"","","","","","image-keyboard-response","177","2.0.0","553939","null","./images/AM-237.jpg","null","Isaiah","Face-first","","","negative","./images/AM-237.jpg","","","","","","","","","","",""
"","","","","","html-keyboard-response","178","2.0.0","558942","null","<p style=""font-size:40px; line-height:1.5; margin: 0 50px 0 50px"">Isaiah consistently shows up late to group meetings, making others wait. </p>","null","Isaiah","Face-first","","","negative","","consistently shows up late to group meetings, making others wait.","","","","","","","","","",""
"","","","","","html-keyboard-response","179","2.0.0","566844","7901","<p >how would you rate their behavior? (Rate between 1-7)<p/>
            <p>1-very untrustworthy, 7-very trustworthy<p/>","4","","","","","","","","trustworthy_rating","","","","","","","","",""
"","","","","","html-keyboard-response","180","2.0.0","568343","1500","<p style=""font-size:100px"">4 - 2 = ?</p>","2","","","","","","","","","4 - 2","2","true","","","","","",""
"","","","","","html-keyboard-response","181","2.0.0","570346","null","<p style=""font-size:100px"">4 - 2 = 2</p><p style=""font-size:100px"">Correct!</p>","null","","","","","","","","","","","","","","","","",""
"","","","","","html-keyboard-response","182","2.0.0","572349","null","<p style=""font-size:100px"">Rachel</p>","null","Rachel","Bio-first","","","negative","","","","","","","","","","","",""
"","","","","","html-keyboard-response","183","2.0.0","577352","null","<p style=""font-size:40px;line-height:1.5; margin: 0 50px 0 50px"">Rachel leaves trash on tables after lunch, ignoring others' requests to clean. </p>","null","Rachel","Bio-first","","","negative","","leaves trash on tables after lunch, ignoring others' requests to clean.","","","","","","","","","",""
"","","","","","image-keyboard-response","184","2.0.0","580355","null","./images/AF-255.jpg","null","Rachel","Bio-first","","","negative","./images/AF-255.jpg","","","","","","","","","","",""
"","","","","","html-keyboard-response","185","2.0.0","583917","3561","<p>how would you rate their behavior? (Rate between 1-7)<p/>
            <p>1-very trustworthy, 7-very untrustworthy<p/>","6","","","","","","","","trustworthy_rating","","","","","","","","",""
"","","","","","html-keyboard-response","186","2.0.0","585898","1980","<p style=""font-size:100px"">8 - 6 = ?</p>","2","","","","","","","","","8 - 6","2","true","","","","","",""
"","","","","","html-keyboard-response","187","2.0.0","587420","null","<p style=""font-size:100px"">8 - 6 = 2</p><p style=""font-size:100px"">Correct!</p>","null","","","","","","","","","","","","","","","","",""
"","","","","","html-keyboard-response","188","2.0.0","589423","null","<p style=""font-size:100px"">Maria</p>","null","Maria","Face-first","latino","Female","positive","","","","","","","","","","","",""
"","","","","","image-keyboard-response","189","2.0.0","592426","null","./images/LF-209.jpg","null","Maria","Face-first","","","positive","./images/LF-209.jpg","","","","","","","","","","",""
"","","","","","html-keyboard-response","190","2.0.0","597429","null","<p style=""font-size:40px; line-height:1.5; margin: 0 50px 0 50px"">Maria checks in on friends who feel down, and call to brighten their day. </p>","null","Maria","Face-first","","","positive","","checks in on friends who feel down, and call to brighten their day.","","","","","","","","","",""
"","","","","","html-keyboard-response","191","2.0.0","600784","3355","<p >how would you rate their behavior? (Rate between 1-7)<p/>
            <p>1-very untrustworthy, 7-very trustworthy<p/>","6","","","","","","","","trustworthy_rating","","","","","","","","",""
"","","","","","html-keyboard-response","192","2.0.0","601845","1061","<p style=""font-size:100px"">9 - 0 = ?</p>","9","","","","","","","","","9 - 0","9","true","","","","","",""
"","","","","","html-keyboard-response","193","2.0.0","604285","null","<p style=""font-size:100px"">9 - 0 = 9</p><p style=""font-size:100px"">Correct!</p>","null","","","","","","","","","","","","","","","","",""
"","","","","","html-keyboard-response","194","2.0.0","606287","null","<p style=""font-size:100px"">Addison</p>","null","Addison","control","latino","Female","","","","","","","","","","","","",""
"","","","","","image-keyboard-response","195","2.0.0","609289","null","./images/LF-213.jpg","null","Addison","","","","","./images/LF-213.jpg","","","","","","","","","","",""
"","","","","","html-keyboard-response","196","2.0.0","614292","null","<p style=""font-size:100px"">Addison</p>","null","","","","","","","","","","","","","","","","",""
"","","","","","html-keyboard-response","197","2.0.0","616012","1719","<p>how would you rate their attractiveness? (Rate between 1-7)<p/>
            <p>1-very unattractive; 7-very attractive<p/>","4","","","","","","","","attractive_rating","","","","","","","","",""
"","","","","","html-keyboard-response","198","2.0.0","617650","1637","<p style=""font-size:100px"">6 - 1 = ?</p>","5","","","","","","","","","6 - 1","5","true","","","","","",""
"","","","","","html-keyboard-response","199","2.0.0","619515","null","<p style=""font-size:100px"">6 - 1 = 5</p><p style=""font-size:100px"">Correct!</p>","null","","","","","","","","","","","","","","","","",""
"","","","","","html-keyboard-response","200","2.0.0","621517","null","<p style=""font-size:100px"">Nathan</p>","null","Nathan","control","latino","Male","","","","","","","","","","","","",""
"","","","","","image-keyboard-response","201","2.0.0","624520","null","./images/LM-210.jpg","null","Nathan","","","","","./images/LM-210.jpg","","","","","","","","","","",""
"","","","","","html-keyboard-response","202","2.0.0","629524","null","<p style=""font-size:100px"">Nathan</p>","null","","","","","","","","","","","","","","","","",""
"","","","","","html-keyboard-response","203","2.0.0","636563","7038","<p>how would you rate their attractiveness? (Rate between 1-7)<p/>
            <p>1-very unattractive; 7-very attractive<p/>","3","","","","","","","","attractive_rating","","","","","","","","",""
"","","","","","html-keyboard-response","204","2.0.0","637596","1033","<p style=""font-size:100px"">1 + 5  = ?</p>","6","","","","","","","","","1 + 5 ","6","true","","","","","",""
"","","","","","html-keyboard-response","205","2.0.0","640066","null","<p style=""font-size:100px"">1 + 5  = 6</p><p style=""font-size:100px"">Correct!</p>","null","","","","","","","","","","","","","","","","",""
"","","","","","html-keyboard-response","206","2.0.0","642068","null","<p style=""font-size:100px"">Mia</p>","null","Mia","Face-first","latino","Female","neutral","","","","","","","","","","","",""
"","","","","","image-keyboard-response","207","2.0.0","645071","null","./images/LF-247.jpg","null","Mia","Face-first","","","neutral","./images/LF-247.jpg","","","","","","","","","","",""
"","","","","","html-keyboard-response","208","2.0.0","650074","null","<p style=""font-size:40px; line-height:1.5; margin: 0 50px 0 50px"">Mia watches a favorite TV show every Friday evening as a weekly ritual. </p>","null","Mia","Face-first","","","neutral","","watches a favorite TV show every Friday evening as a weekly ritual.","","","","","","","","","",""
"","","","","","html-keyboard-response","209","2.0.0","652916","2841","<p >how would you rate their behavior? (Rate between 1-7)<p/>
            <p>1-very untrustworthy, 7-very trustworthy<p/>","5","","","","","","","","trustworthy_rating","","","","","","","","",""
"","","","","","html-keyboard-response","210","2.0.0","653997","1081","<p style=""font-size:100px"">6 - 2 = ?</p>","4","","","","","","","","","6 - 2","4","true","","","","","",""
"","","","","","html-keyboard-response","211","2.0.0","656419","null","<p style=""font-size:100px"">6 - 2 = 4</p><p style=""font-size:100px"">Correct!</p>","null","","","","","","","","","","","","","","","","",""
"","","","","","html-keyboard-response","212","2.0.0","658423","null","<p style=""font-size:100px"">Julia</p>","null","Julia","Bio-first","","","positive","","","","","","","","","","","",""
"","","","","","html-keyboard-response","213","2.0.0","663425","null","<p style=""font-size:40px;line-height:1.5; margin: 0 50px 0 50px"">Julia offers up a bus seat to someone standing, without being asked. </p>","null","Julia","Bio-first","","","positive","","offers up a bus seat to someone standing, without being asked.","","","","","","","","","",""
"","","","","","image-keyboard-response","214","2.0.0","666429","null","./images/AF-219.jpg","null","Julia","Bio-first","","","positive","./images/AF-219.jpg","","","","","","","","","","",""
"","","","","","html-keyboard-response","215","2.0.0","668657","2227","<p>how would you rate their behavior? (Rate between 1-7)<p/>
            <p>1-very trustworthy, 7-very untrustworthy<p/>","2","","","","","","","","trustworthy_rating","","","","","","","","",""
"","","","","","html-keyboard-response","216","2.0.0","670101","1444","<p style=""font-size:100px"">6 + 1  = ?</p>","7","","","","","","","","","6 + 1 ","7","true","","","","","",""
"","","","","","html-keyboard-response","217","2.0.0","672159","null","<p style=""font-size:100px"">6 + 1  = 7</p><p style=""font-size:100px"">Correct!</p>","null","","","","","","","","","","","","","","","","",""
"","","","","","html-keyboard-response","218","2.0.0","674162","null","<p style=""font-size:100px"">Alexander</p>","null","Alexander","Face-first","asian","Male","neutral","","","","","","","","","","","",""
"","","","","","image-keyboard-response","219","2.0.0","677164","null","./images/AM-211.jpg","null","Alexander","Face-first","","","neutral","./images/AM-211.jpg","","","","","","","","","","",""
"","","","","","html-keyboard-response","220","2.0.0","682167","null","<p style=""font-size:40px; line-height:1.5; margin: 0 50px 0 50px"">Alexander organizes a collection of potted plants on the balcony every few weeks for a fresh look. </p>","null","Alexander","Face-first","","","neutral","","organizes a collection of potted plants on the balcony every few weeks for a fresh look.","","","","","","","","","",""
"","","","","","html-keyboard-response","221","2.0.0","684660","2493","<p >how would you rate their behavior? (Rate between 1-7)<p/>
            <p>1-very untrustworthy, 7-very trustworthy<p/>","5","","","","","","","","trustworthy_rating","","","","","","","","",""
"","","","","","html-keyboard-response","222","2.0.0","686501","1841","<p style=""font-size:100px"">7 + 2  = ?</p>","9","","","","","","","","","7 + 2 ","9","true","","","","","",""
"","","","","","html-keyboard-response","223","2.0.0","688163","null","<p style=""font-size:100px"">7 + 2  = 9</p><p style=""font-size:100px"">Correct!</p>","null","","","","","","","","","","","","","","","","",""
"","","","","","html-keyboard-response","224","2.0.0","690165","null","<p style=""font-size:100px"">Brianna</p>","null","Brianna","Bio-first","","","positive","","","","","","","","","","","",""
"","","","","","html-keyboard-response","225","2.0.0","695166","null","<p style=""font-size:40px;line-height:1.5; margin: 0 50px 0 50px"">Brianna helps neighbors carry large boxes up multiple flights without hesitation. </p>","null","Brianna","Bio-first","","","positive","","helps neighbors carry large boxes up multiple flights without hesitation.","","","","","","","","","",""
"","","","","","image-keyboard-response","226","2.0.0","698169","null","./images/LF-201.jpg","null","Brianna","Bio-first","","","positive","./images/LF-201.jpg","","","","","","","","","","",""
"","","","","","html-keyboard-response","227","2.0.0","700835","2665","<p>how would you rate their behavior? (Rate between 1-7)<p/>
            <p>1-very trustworthy, 7-very untrustworthy<p/>","2","","","","","","","","trustworthy_rating","","","","","","","","",""
"","","","","","html-keyboard-response","228","2.0.0","702562","1726","<p style=""font-size:100px"">9 - 5 = ?</p>","4","","","","","","","","","9 - 5","4","true","","","","","",""
"","","","","","html-keyboard-response","229","2.0.0","704338","null","<p style=""font-size:100px"">9 - 5 = 4</p><p style=""font-size:100px"">Correct!</p>","null","","","","","","","","","","","","","","","","",""
"","","","","","html-keyboard-response","230","2.0.0","706340","null","<p style=""font-size:100px"">Isaac</p>","null","Isaac","control","white","Male","","","","","","","","","","","","",""
"","","","","","image-keyboard-response","231","2.0.0","709343","null","./images/WM-208.jpg","null","Isaac","","","","","./images/WM-208.jpg","","","","","","","","","","",""
"","","","","","html-keyboard-response","232","2.0.0","714346","null","<p style=""font-size:100px"">Isaac</p>","null","","","","","","","","","","","","","","","","",""
"","","","","","html-keyboard-response","233","2.0.0","716451","2104","<p>how would you rate their attractiveness? (Rate between 1-7)<p/>
            <p>1-very unattractive; 7-very attractive<p/>","4","","","","","","","","attractive_rating","","","","","","","","",""
"","","","","","html-keyboard-response","234","2.0.0","718163","1712","<p style=""font-size:100px"">9 - 0 = ?</p>","9","","","","","","","","","9 - 0","9","true","","","","","",""
"","","","","","html-keyboard-response","235","2.0.0","719952","null","<p style=""font-size:100px"">9 - 0 = 9</p><p style=""font-size:100px"">Correct!</p>","null","","","","","","","","","","","","","","","","",""
"","","","","","html-keyboard-response","236","2.0.0","721955","null","<p style=""font-size:100px"">Taylor</p>","null","Taylor","Face-first","asian","Female","negative","","","","","","","","","","","",""
"","","","","","image-keyboard-response","237","2.0.0","724959","null","./images/AF-227.jpg","null","Taylor","Face-first","","","negative","./images/AF-227.jpg","","","","","","","","","","",""
"","","","","","html-keyboard-response","238","2.0.0","729962","null","<p style=""font-size:40px; line-height:1.5; margin: 0 50px 0 50px"">Taylor refuses to lower loud music while others try to study. </p>","null","Taylor","Face-first","","","negative","","refuses to lower loud music while others try to study.","","","","","","","","","",""
"","","","","","html-keyboard-response","239","2.0.0","732694","2732","<p >how would you rate their behavior? (Rate between 1-7)<p/>
            <p>1-very untrustworthy, 7-very trustworthy<p/>","3","","","","","","","","trustworthy_rating","","","","","","","","",""
"","","","","","html-keyboard-response","240","2.0.0","734007","1312","<p style=""font-size:100px"">1 + 5  = ?</p>","6","","","","","","","","","1 + 5 ","6","true","","","","","",""
"","","","","","html-keyboard-response","241","2.0.0","736197","null","<p style=""font-size:100px"">1 + 5  = 6</p><p style=""font-size:100px"">Correct!</p>","null","","","","","","","","","","","","","","","","",""
"","","","","","html-keyboard-response","242","2.0.0","738200","null","<p style=""font-size:100px"">Joshua</p>","null","Joshua","control","asian","Male","","","","","","","","","","","","",""
"","","","","","image-keyboard-response","243","2.0.0","741203","null","./images/AM-229.jpg","null","Joshua","","","","","./images/AM-229.jpg","","","","","","","","","","",""
"","","","","","html-keyboard-response","244","2.0.0","746206","null","<p style=""font-size:100px"">Joshua</p>","null","","","","","","","","","","","","","","","","",""
"","","","","","html-keyboard-response","245","2.0.0","748573","2366","<p>how would you rate their attractiveness? (Rate between 1-7)<p/>
            <p>1-very unattractive; 7-very attractive<p/>","4","","","","","","","","attractive_rating","","","","","","","","",""
"","","","","","html-keyboard-response","246","2.0.0","749892","1319","<p style=""font-size:100px"">1 + 2  = ?</p>","3","","","","","","","","","1 + 2 ","3","true","","","","","",""
"","","","","","html-keyboard-response","247","2.0.0","752075","null","<p style=""font-size:100px"">1 + 2  = 3</p><p style=""font-size:100px"">Correct!</p>","null","","","","","","","","","","","","","","","","",""
"","","","","","html-keyboard-response","248","2.0.0","754078","null","<p style=""font-size:100px"">Robert</p>","null","Robert","Bio-first","","","neutral","","","","","","","","","","","",""
"","","","","","html-keyboard-response","249","2.0.0","759080","null","<p style=""font-size:40px;line-height:1.5; margin: 0 50px 0 50px"">Robert spends an hour rearranging living room furniture to refresh the space. </p>","null","Robert","Bio-first","","","neutral","","spends an hour rearranging living room furniture to refresh the space.","","","","","","","","","",""
"","","","","","image-keyboard-response","250","2.0.0","762084","null","./images/AM-252.jpg","null","Robert","Bio-first","","","neutral","./images/AM-252.jpg","","","","","","","","","","",""
"","","","","","html-keyboard-response","251","2.0.0","764321","2237","<p>how would you rate their behavior? (Rate between 1-7)<p/>
            <p>1-very trustworthy, 7-very untrustworthy<p/>","3","","","","","","","","trustworthy_rating","","","","","","","","",""
"","","","","","html-keyboard-response","252","2.0.0","765497","1176","<p style=""font-size:100px"">0 + 5  = ?</p>","5","","","","","","","","","0 + 5 ","5","true","","","","","",""
"","","","","","html-keyboard-response","253","2.0.0","767824","null","<p style=""font-size:100px"">0 + 5  = 5</p><p style=""font-size:100px"">Correct!</p>","null","","","","","","","","","","","","","","","","",""
"","","","","","html-keyboard-response","254","2.0.0","769827","null","<p style=""font-size:100px"">Abigail</p>","null","Abigail","Face-first","latino","Female","negative","","","","","","","","","","","",""
"","","","","","image-keyboard-response","255","2.0.0","772829","null","./images/LF-243.jpg","null","Abigail","Face-first","","","negative","./images/LF-243.jpg","","","","","","","","","","",""
"","","","","","html-keyboard-response","256","2.0.0","777831","null","<p style=""font-size:40px; line-height:1.5; margin: 0 50px 0 50px"">Abigail cuts in line at crowded cafs, frustrating everyone waiting behind. </p>","null","Abigail","Face-first","","","negative","","cuts in line at crowded cafs, frustrating everyone waiting behind.","","","","","","","","","",""
"","","","","","html-keyboard-response","257","2.0.0","781063","3231","<p >how would you rate their behavior? (Rate between 1-7)<p/>
            <p>1-very untrustworthy, 7-very trustworthy<p/>","2","","","","","","","","trustworthy_rating","","","","","","","","",""
"","","","","","html-keyboard-response","258","2.0.0","782239","1176","<p style=""font-size:100px"">5 - 3 = ?</p>","2","","","","","","","","","5 - 3","2","true","","","","","",""
"","","","","","html-keyboard-response","259","2.0.0","784564","null","<p style=""font-size:100px"">5 - 3 = 2</p><p style=""font-size:100px"">Correct!</p>","null","","","","","","","","","","","","","","","","",""
"","","","","","html-keyboard-response","260","2.0.0","786567","null","<p style=""font-size:100px"">Kayla</p>","null","Kayla","control","white","Female","","","","","","","","","","","","",""
"","","","","","image-keyboard-response","261","2.0.0","789570","null","./images/WF-235.jpg","null","Kayla","","","","","./images/WF-235.jpg","","","","","","","","","","",""
"","","","","","html-keyboard-response","262","2.0.0","794573","null","<p style=""font-size:100px"">Kayla</p>","null","","","","","","","","","","","","","","","","",""
"","","","","","html-keyboard-response","263","2.0.0","797839","3265","<p>how would you rate their attractiveness? (Rate between 1-7)<p/>
            <p>1-very unattractive; 7-very attractive<p/>","4","","","","","","","","attractive_rating","","","","","","","","",""
"","","","","","html-keyboard-response","264","2.0.0","799381","1542","<p style=""font-size:100px"">7 - 4 = ?</p>","3","","","","","","","","","7 - 4","3","true","","","","","",""
"","","","","","html-keyboard-response","265","2.0.0","801342","null","<p style=""font-size:100px"">7 - 4 = 3</p><p style=""font-size:100px"">Correct!</p>","null","","","","","","","","","","","","","","","","",""
"","","","","","html-keyboard-response","266","2.0.0","803344","null","<p style=""font-size:100px"">Stephanie</p>","null","Stephanie","Bio-first","","","neutral","","","","","","","","","","","",""
"","","","","","html-keyboard-response","267","2.0.0","808347","null","<p style=""font-size:40px;line-height:1.5; margin: 0 50px 0 50px"">Stephanie goes grocery shopping weekly to stock up on fresh ingredients. </p>","null","Stephanie","Bio-first","","","neutral","","goes grocery shopping weekly to stock up on fresh ingredients.","","","","","","","","","",""
"","","","","","image-keyboard-response","268","2.0.0","811351","null","./images/LF-211.jpg","null","Stephanie","Bio-first","","","neutral","./images/LF-211.jpg","","","","","","","","","","",""
"","","","","","html-keyboard-response","269","2.0.0","814493","3141","<p>how would you rate their behavior? (Rate between 1-7)<p/>
            <p>1-very trustworthy, 7-very untrustworthy<p/>","2","","","","","","","","trustworthy_rating","","","","","","","","",""
"","","","","","html-keyboard-response","270","2.0.0","815743","1249","<p style=""font-size:100px"">7 + 2  = ?</p>","9","","","","","","","","","7 + 2 ","9","true","","","","","",""
"","","","","","html-keyboard-response","271","2.0.0","817996","null","<p style=""font-size:100px"">7 + 2  = 9</p><p style=""font-size:100px"">Correct!</p>","null","","","","","","","","","","","","","","","","",""
"","","","","","html-keyboard-response","272","2.0.0","819999","null","<p style=""font-size:100px"">Christopher</p>","null","Christopher","Bio-first","","","negative","","","","","","","","","","","",""
"","","","","","html-keyboard-response","273","2.0.0","825001","null","<p style=""font-size:40px;line-height:1.5; margin: 0 50px 0 50px"">Christopher takes calls loudly at dinner, distracting everyone eating nearby. </p>","null","Christopher","Bio-first","","","negative","","takes calls loudly at dinner, distracting everyone eating nearby.","","","","","","","","","",""
"","","","","","image-keyboard-response","274","2.0.0","828014","null","./images/AM-231.jpg","null","Christopher","Bio-first","","","negative","./images/AM-231.jpg","","","","","","","","","","",""
"","","","","","html-keyboard-response","275","2.0.0","834805","6790","<p>how would you rate their behavior? (Rate between 1-7)<p/>
            <p>1-very trustworthy, 7-very untrustworthy<p/>","6","","","","","","","","trustworthy_rating","","","","","","","","",""
"","","","","","html-keyboard-response","276","2.0.0","835809","1004","<p style=""font-size:100px"">1 + 5  = ?</p>","6","","","","","","","","","1 + 5 ","6","true","","","","","",""
"","","","","","html-keyboard-response","277","2.0.0","838308","null","<p style=""font-size:100px"">1 + 5  = 6</p><p style=""font-size:100px"">Correct!</p>","null","","","","","","","","","","","","","","","","",""
"","","","","","html-keyboard-response","278","2.0.0","840310","null","<p style=""font-size:100px"">Kaiden</p>","null","Kaiden","control","latino","Male","","","","","","","","","","","","",""
"","","","","","image-keyboard-response","279","2.0.0","843313","null","./images/LM-243.jpg","null","Kaiden","","","","","./images/LM-243.jpg","","","","","","","","","","",""
"","","","","","html-keyboard-response","280","2.0.0","848316","null","<p style=""font-size:100px"">Kaiden</p>","null","","","","","","","","","","","","","","","","",""
"","","","","","html-keyboard-response","281","2.0.0","850385","2069","<p>how would you rate their attractiveness? (Rate between 1-7)<p/>
            <p>1-very unattractive; 7-very attractive<p/>","2","","","","","","","","attractive_rating","","","","","","","","",""
"","","","","","html-keyboard-response","282","2.0.0","851881","1495","<p style=""font-size:100px"">5 - 3 = ?</p>","2","","","","","","","","","5 - 3","2","true","","","","","",""
"","","","","","html-keyboard-response","283","2.0.0","853888","null","<p style=""font-size:100px"">5 - 3 = 2</p><p style=""font-size:100px"">Correct!</p>","null","","","","","","","","","","","","","","","","",""
"","","","","","html-keyboard-response","284","2.0.0","855889","null","<p style=""font-size:100px"">Ethan</p>","null","Ethan","Face-first","asian","Male","positive","","","","","","","","","","","",""
"","","","","","image-keyboard-response","285","2.0.0","858892","null","./images/AM-221.jpg","null","Ethan","Face-first","","","positive","./images/AM-221.jpg","","","","","","","","","","",""
"","","","","","html-keyboard-response","286","2.0.0","863895","null","<p style=""font-size:40px; line-height:1.5; margin: 0 50px 0 50px"">Ethan happily volunteers to babysit for a friend who needs a night off. </p>","null","Ethan","Face-first","","","positive","","happily volunteers to babysit for a friend who needs a night off.","","","","","","","","","",""
"","","","","","html-keyboard-response","287","2.0.0","868799","4904","<p >how would you rate their behavior? (Rate between 1-7)<p/>
            <p>1-very untrustworthy, 7-very trustworthy<p/>","6","","","","","","","","trustworthy_rating","","","","","","","","",""
"","","","","","html-keyboard-response","288","2.0.0","870228","1429","<p style=""font-size:100px"">5 + 2  = ?</p>","7","","","","","","","","","5 + 2 ","7","true","","","","","",""
"","","","","","html-keyboard-response","289","2.0.0","872302","null","<p style=""font-size:100px"">5 + 2  = 7</p><p style=""font-size:100px"">Correct!</p>","null","","","","","","","","","","","","","","","","",""
"","","","","","html-keyboard-response","290","2.0.0","874305","null","<p style=""font-size:100px"">Mason</p>","null","Mason","Bio-first","","","negative","","","","","","","","","","","",""
"","","","","","html-keyboard-response","291","2.0.0","879308","null","<p style=""font-size:40px;line-height:1.5; margin: 0 50px 0 50px"">Mason avoids helping friends who carry heavy groceries up long staircases. </p>","null","Mason","Bio-first","","","negative","","avoids helping friends who carry heavy groceries up long staircases.","","","","","","","","","",""
"","","","","","image-keyboard-response","292","2.0.0","882311","null","./images/WM-009.jpg","null","Mason","Bio-first","","","negative","./images/WM-009.jpg","","","","","","","","","","",""
"","","","","","html-keyboard-response","293","2.0.0","885044","2733","<p>how would you rate their behavior? (Rate between 1-7)<p/>
            <p>1-very trustworthy, 7-very untrustworthy<p/>","6","","","","","","","","trustworthy_rating","","","","","","","","",""
"","","","","","html-keyboard-response","294","2.0.0","887047","2002","<p style=""font-size:100px"">9 - 5 = ?</p>","4","","","","","","","","","9 - 5","4","true","","","","","",""
"","","","","","html-keyboard-response","295","2.0.0","888547","null","<p style=""font-size:100px"">9 - 5 = 4</p><p style=""font-size:100px"">Correct!</p>","null","","","","","","","","","","","","","","","","",""
"","","","","","html-keyboard-response","296","2.0.0","890549","null","<p style=""font-size:100px"">Evan</p>","null","Evan","Face-first","latino","Male","positive","","","","","","","","","","","",""
"","","","","","image-keyboard-response","297","2.0.0","893552","null","./images/LM-239.jpg","null","Evan","Face-first","","","positive","./images/LM-239.jpg","","","","","","","","","","",""
"","","","","","html-keyboard-response","298","2.0.0","898555","null","<p style=""font-size:40px; line-height:1.5; margin: 0 50px 0 50px"">Evan spends weekends volunteering at the local animal shelter with enthusiasm. </p>","null","Evan","Face-first","","","positive","","spends weekends volunteering at the local animal shelter with enthusiasm.","","","","","","","","","",""
"","","","","","html-keyboard-response","299","2.0.0","900722","2166","<p >how would you rate their behavior? (Rate between 1-7)<p/>
            <p>1-very untrustworthy, 7-very trustworthy<p/>","6","","","","","","","","trustworthy_rating","","","","","","","","",""
"","","","","","html-keyboard-response","300","2.0.0","902501","1779","<p style=""font-size:100px"">4 - 0 = ?</p>","4","","","","","","","","","4 - 0","4","true","","","","","",""
"","","","","","html-keyboard-response","301","2.0.0","904225","null","<p style=""font-size:100px"">4 - 0 = 4</p><p style=""font-size:100px"">Correct!</p>","null","","","","","","","","","","","","","","","","",""
"","","","","","html-keyboard-response","302","2.0.0","906226","null","<p style=""font-size:100px"">Kayla</p>","null","Kayla","control","white","Female","","","","","","","","","","","","",""
"","","","","","image-keyboard-response","303","2.0.0","909228","null","./images/WF-207.jpg","null","Kayla","","","","","./images/WF-207.jpg","","","","","","","","","","",""
"","","","","","html-keyboard-response","304","2.0.0","914230","null","<p style=""font-size:100px"">Kayla</p>","null","","","","","","","","","","","","","","","","",""
"","","","","","html-keyboard-response","305","2.0.0","917572","3342","<p>how would you rate their attractiveness? (Rate between 1-7)<p/>
            <p>1-very unattractive; 7-very attractive<p/>","3","","","","","","","","attractive_rating","","","","","","","","",""
"","","","","","html-keyboard-response","306","2.0.0","919670","2098","<p style=""font-size:100px"">6 - 0 = ?</p>","6","","","","","","","","","6 - 0","6","true","","","","","",""
"","","","","","html-keyboard-response","307","2.0.0","921074","null","<p style=""font-size:100px"">6 - 0 = 6</p><p style=""font-size:100px"">Correct!</p>","null","","","","","","","","","","","","","","","","",""
"","","","","","html-keyboard-response","308","2.0.0","923075","null","<p style=""font-size:100px"">Emma</p>","null","Emma","control","white","Female","","","","","","","","","","","","",""
"","","","","","image-keyboard-response","309","2.0.0","926078","null","./images/WF-206.jpg","null","Emma","","","","","./images/WF-206.jpg","","","","","","","","","","",""
"","","","","","html-keyboard-response","310","2.0.0","931081","null","<p style=""font-size:100px"">Emma</p>","null","","","","","","","","","","","","","","","","",""
"","","","","","html-keyboard-response","311","2.0.0","936662","5580","<p>how would you rate their attractiveness? (Rate between 1-7)<p/>
            <p>1-very unattractive; 7-very attractive<p/>","5","","","","","","","","attractive_rating","","","","","","","","",""
"","","","","","html-keyboard-response","312","2.0.0","938498","1836","<p style=""font-size:100px"">6 + 1  = ?</p>","7","","","","","","","","","6 + 1 ","7","true","","","","","",""
"","","","","","html-keyboard-response","313","2.0.0","940164","null","<p style=""font-size:100px"">6 + 1  = 7</p><p style=""font-size:100px"">Correct!</p>","null","","","","","","","","","","","","","","","","",""
"","","","","","html-keyboard-response","314","2.0.0","942166","null","<p style=""font-size:100px"">Destiny</p>","null","Destiny","Face-first","asian","Female","neutral","","","","","","","","","","","",""
"","","","","","image-keyboard-response","315","2.0.0","945167","null","./images/AF-205.jpg","null","Destiny","Face-first","","","neutral","./images/AF-205.jpg","","","","","","","","","","",""
"","","","","","html-keyboard-response","316","2.0.0","950169","null","<p style=""font-size:40px; line-height:1.5; margin: 0 50px 0 50px"">Destiny strolls around the block after lunch daily to clear their mind. </p>","null","Destiny","Face-first","","","neutral","","strolls around the block after lunch daily to clear their mind.","","","","","","","","","",""
"","","","","","html-keyboard-response","317","2.0.0","952479","2310","<p >how would you rate their behavior? (Rate between 1-7)<p/>
            <p>1-very untrustworthy, 7-very trustworthy<p/>","5","","","","","","","","trustworthy_rating","","","","","","","","",""
"","","","","","html-keyboard-response","318","2.0.0","954167","1687","<p style=""font-size:100px"">5 + 2  = ?</p>","7","","","","","","","","","5 + 2 ","7","true","","","","","",""
"","","","","","html-keyboard-response","319","2.0.0","955981","null","<p style=""font-size:100px"">5 + 2  = 7</p><p style=""font-size:100px"">Correct!</p>","null","","","","","","","","","","","","","","","","",""
"","","","","","html-keyboard-response","320","2.0.0","957984","null","<p style=""font-size:100px"">Lilian</p>","null","Lilian","Bio-first","","","positive","","","","","","","","","","","",""
"","","","","","html-keyboard-response","321","2.0.0","962987","null","<p style=""font-size:40px;line-height:1.5; margin: 0 50px 0 50px"">Lilian organizes a team-building activity to strengthen relationships among colleagues. </p>","null","Lilian","Bio-first","","","positive","","organizes a team-building activity to strengthen relationships among colleagues.","","","","","","","","","",""
"","","","","","image-keyboard-response","322","2.0.0","965990","null","./images/WF-017.jpg","null","Lilian","Bio-first","","","positive","./images/WF-017.jpg","","","","","","","","","","",""
"","","","","","html-keyboard-response","323","2.0.0","970835","4844","<p>how would you rate their behavior? (Rate between 1-7)<p/>
            <p>1-very trustworthy, 7-very untrustworthy<p/>","3","","","","","","","","trustworthy_rating","","","","","","","","",""
"","","","","","html-keyboard-response","324","2.0.0","972218","1383","<p style=""font-size:100px"">5 - 3 = ?</p>","2","","","","","","","","","5 - 3","2","true","","","","","",""
"","","","","","html-keyboard-response","325","2.0.0","974337","null","<p style=""font-size:100px"">5 - 3 = 2</p><p style=""font-size:100px"">Correct!</p>","null","","","","","","","","","","","","","","","","",""
"","","","","","html-keyboard-response","326","2.0.0","976494","2156","You will now watch a short video. Press any key to start."," ","","","","","","","","","","","","","","","","",""
"","","","","","html-keyboard-response","327","2.0.0","993989","17494","<p>Now, you will take a 2-part memory test.<p/>
          <p>Please wait for the experimenter instructions.<p/>
          <p>When prompted, press ""1"" to begin the first memory test.<p/>","1","","","","","","","","","","","","","","","","",""
"","","","","","image-keyboard-response","328","2.0.0","1007862","13872","./lure_images/AM-243.jpg","3","","","","","","./lure_images/AM-243.jpg","","","","","true","recognition","[""1"",""2"",""3""]","3","","",""
"","","","","","image-keyboard-response","329","2.0.0","1081794","73929","./images/LM-200.jpg","3","","","","","","./images/LM-200.jpg","","","","","false","recognition","[""4"",""5"",""6""]","3","","",""
"","","","","","image-keyboard-response","330","2.0.0","1087427","5633","./images/LF-213.jpg","3","","","","","","./images/LF-213.jpg","","","","","false","recognition","[""4"",""5"",""6""]","3","","",""
"","","","","","image-keyboard-response","331","2.0.0","1090321","2893","./lure_images/WF-212.jpg","3","","","","","","./lure_images/WF-212.jpg","","","","","true","recognition","[""1"",""2"",""3""]","3","","",""
"","","","","","image-keyboard-response","332","2.0.0","1093557","3236","./images/WF-007.jpg","6","","","","","","./images/WF-007.jpg","","","","","true","recognition","[""4"",""5"",""6""]","6","","",""
"","","","","","image-keyboard-response","333","2.0.0","1095022","1465","./images/AM-207.jpg","6","","","","","","./images/AM-207.jpg","","","","","true","recognition","[""4"",""5"",""6""]","6","","",""
"","","","","","image-keyboard-response","334","2.0.0","1097519","2496","./lure_images/LF-250.jpg","3","","","","","","./lure_images/LF-250.jpg","","","","","true","recognition","[""1"",""2"",""3""]","3","","",""
"","","","","","image-keyboard-response","335","2.0.0","1099740","2221","./images/LF-243.jpg","3","","","","","","./images/LF-243.jpg","","","","","false","recognition","[""4"",""5"",""6""]","3","","",""
"","","","","","image-keyboard-response","336","2.0.0","1102333","2592","./images/AM-201.jpg","6","","","","","","./images/AM-201.jpg","","","","","true","recognition","[""4"",""5"",""6""]","6","","",""
"","","","","","image-keyboard-response","337","2.0.0","1105005","2671","./lure_images/WF-211.jpg","3","","","","","","./lure_images/WF-211.jpg","","","","","true","recognition","[""1"",""2"",""3""]","3","","",""
"","","","","","image-keyboard-response","338","2.0.0","1108291","3285","./lure_images/LM-214.jpg","3","","","","","","./lure_images/LM-214.jpg","","","","","true","recognition","[""1"",""2"",""3""]","3","","",""
"","","","","","image-keyboard-response","339","2.0.0","1110443","2152","./images/AM-229.jpg","6","","","","","","./images/AM-229.jpg","","","","","true","recognition","[""4"",""5"",""6""]","6","","",""
"","","","","","image-keyboard-response","340","2.0.0","1113004","2561","./lure_images/WM-034.jpg","2","","","","","","./lure_images/WM-034.jpg","","","","","true","recognition","[""1"",""2"",""3""]","2","","",""
"","","","","","image-keyboard-response","341","2.0.0","1114698","1693","./lure_images/WF-218.jpg","2","","","","","","./lure_images/WF-218.jpg","","","","","true","recognition","[""1"",""2"",""3""]","2","","",""
"","","","","","image-keyboard-response","342","2.0.0","1116749","2050","./lure_images/AM-238.jpg","3","","","","","","./lure_images/AM-238.jpg","","","","","true","recognition","[""1"",""2"",""3""]","3","","",""
"","","","","","image-keyboard-response","343","2.0.0","1118620","1871","./images/LM-239.jpg","6","","","","","","./images/LM-239.jpg","","","","","true","recognition","[""4"",""5"",""6""]","6","","",""
"","","","","","image-keyboard-response","344","2.0.0","1120333","1712","./images/WF-017.jpg","6","","","","","","./images/WF-017.jpg","","","","","true","recognition","[""4"",""5"",""6""]","6","","",""
"","","","","","image-keyboard-response","345","2.0.0","1122300","1967","./lure_images/LF-223.jpg","3","","","","","","./lure_images/LF-223.jpg","","","","","true","recognition","[""1"",""2"",""3""]","3","","",""
"","","","","","image-keyboard-response","346","2.0.0","1123758","1457","./images/AF-226.jpg","6","","","","","","./images/AF-226.jpg","","","","","true","recognition","[""4"",""5"",""6""]","6","","",""
"","","","","","image-keyboard-response","347","2.0.0","1125952","2193","./lure_images/WF-011.jpg","3","","","","","","./lure_images/WF-011.jpg","","","","","true","recognition","[""1"",""2"",""3""]","3","","",""
"","","","","","image-keyboard-response","348","2.0.0","1127665","1713","./lure_images/WM-237.jpg","3","","","","","","./lure_images/WM-237.jpg","","","","","true","recognition","[""1"",""2"",""3""]","3","","",""
"","","","","","image-keyboard-response","349","2.0.0","1130094","2428","./lure_images/LM-242.jpg","2","","","","","","./lure_images/LM-242.jpg","","","","","true","recognition","[""1"",""2"",""3""]","2","","",""
"","","","","","image-keyboard-response","350","2.0.0","1131772","1678","./images/AF-228.jpg","6","","","","","","./images/AF-228.jpg","","","","","true","recognition","[""4"",""5"",""6""]","6","","",""
"","","","","","image-keyboard-response","351","2.0.0","1132813","1040","./images/WM-036.jpg","6","","","","","","./images/WM-036.jpg","","","","","true","recognition","[""4"",""5"",""6""]","6","","",""
"","","","","","image-keyboard-response","352","2.0.0","1133859","1045","./images/AM-221.jpg","6","","","","","","./images/AM-221.jpg","","","","","true","recognition","[""4"",""5"",""6""]","6","","",""
"","","","","","image-keyboard-response","353","2.0.0","1134847","988","./lure_images/AF-211.jpg","6","","","","","","./lure_images/AF-211.jpg","","","","","false","recognition","[""1"",""2"",""3""]","6","","",""
"","","","","","image-keyboard-response","354","2.0.0","1135969","1121","./images/AM-231.jpg","6","","","","","","./images/AM-231.jpg","","","","","true","recognition","[""4"",""5"",""6""]","6","","",""
"","","","","","image-keyboard-response","355","2.0.0","1139926","3957","./lure_images/LM-247.jpg","6","","","","","","./lure_images/LM-247.jpg","","","","","false","recognition","[""1"",""2"",""3""]","6","","",""
"","","","","","image-keyboard-response","356","2.0.0","1141872","1946","./images/AM-211.jpg","6","","","","","","./images/AM-211.jpg","","","","","true","recognition","[""4"",""5"",""6""]","6","","",""
"","","","","","image-keyboard-response","357","2.0.0","1143431","1558","./lure_images/AF-221.jpg","3","","","","","","./lure_images/AF-221.jpg","","","","","true","recognition","[""1"",""2"",""3""]","3","","",""
"","","","","","image-keyboard-response","358","2.0.0","1145652","2220","./images/WM-033.jpg","3","","","","","","./images/WM-033.jpg","","","","","false","recognition","[""4"",""5"",""6""]","3","","",""
"","","","","","image-keyboard-response","359","2.0.0","1146849","1197","./lure_images/LF-228.jpg","2","","","","","","./lure_images/LF-228.jpg","","","","","true","recognition","[""1"",""2"",""3""]","2","","",""
"","","","","","image-keyboard-response","360","2.0.0","1148292","1443","./lure_images/LM-252.jpg","2","","","","","","./lure_images/LM-252.jpg","","","","","true","recognition","[""1"",""2"",""3""]","2","","",""
"","","","","","image-keyboard-response","361","2.0.0","1149820","1528","./lure_images/LM-244.jpg","2","","","","","","./lure_images/LM-244.jpg","","","","","true","recognition","[""1"",""2"",""3""]","2","","",""
"","","","","","image-keyboard-response","362","2.0.0","1151257","1436","./images/WF-233.jpg","6","","","","","","./images/WF-233.jpg","","","","","true","recognition","[""4"",""5"",""6""]","6","","",""
"","","","","","image-keyboard-response","363","2.0.0","1152820","1562","./lure_images/AM-225.jpg","3","","","","","","./lure_images/AM-225.jpg","","","","","true","recognition","[""1"",""2"",""3""]","3","","",""
"","","","","","image-keyboard-response","364","2.0.0","1154514","1694","./lure_images/AM-250.jpg","3","","","","","","./lure_images/AM-250.jpg","","","","","true","recognition","[""1"",""2"",""3""]","3","","",""
"","","","","","image-keyboard-response","365","2.0.0","1156721","2207","./images/WF-206.jpg","6","","","","","","./images/WF-206.jpg","","","","","true","recognition","[""4"",""5"",""6""]","6","","",""
"","","","","","image-keyboard-response","366","2.0.0","1157906","1185","./images/WM-040.jpg","6","","","","","","./images/WM-040.jpg","","","","","true","recognition","[""4"",""5"",""6""]","6","","",""
"","","","","","image-keyboard-response","367","2.0.0","1162759","4852","./lure_images/LM-224.jpg","3","","","","","","./lure_images/LM-224.jpg","","","","","true","recognition","[""1"",""2"",""3""]","3","","",""
"","","","","","image-keyboard-response","368","2.0.0","1169232","6473","./lure_images/AF-206.jpg","2","","","","","","./lure_images/AF-206.jpg","","","","","true","recognition","[""1"",""2"",""3""]","2","","",""
"","","","","","image-keyboard-response","369","2.0.0","1171098","1865","./images/LF-241.jpg","6","","","","","","./images/LF-241.jpg","","","","","true","recognition","[""4"",""5"",""6""]","6","","",""
"","","","","","image-keyboard-response","370","2.0.0","1172920","1821","./images/WM-200.jpg","3","","","","","","./images/WM-200.jpg","","","","","false","recognition","[""4"",""5"",""6""]","3","","",""
"","","","","","image-keyboard-response","371","2.0.0","1174321","1400","./lure_images/WM-032.jpg","6","","","","","","./lure_images/WM-032.jpg","","","","","false","recognition","[""1"",""2"",""3""]","6","","",""
"","","","","","image-keyboard-response","372","2.0.0","1175590","1269","./images/WF-214.jpg","6","","","","","","./images/WF-214.jpg","","","","","true","recognition","[""4"",""5"",""6""]","6","","",""
"","","","","","image-keyboard-response","373","2.0.0","1176826","1235","./images/LM-241.jpg","6","","","","","","./images/LM-241.jpg","","","","","true","recognition","[""4"",""5"",""6""]","6","","",""
"","","","","","image-keyboard-response","374","2.0.0","1178629","1802","./images/LF-247.jpg","2","","","","","","./images/LF-247.jpg","","","","","false","recognition","[""4"",""5"",""6""]","2","","",""
"","","","","","image-keyboard-response","375","2.0.0","1180859","2229","./lure_images/LF-221.jpg","2","","","","","","./lure_images/LF-221.jpg","","","","","true","recognition","[""1"",""2"",""3""]","2","","",""
"","","","","","image-keyboard-response","376","2.0.0","1182247","1387","./images/WM-004.jpg","6","","","","","","./images/WM-004.jpg","","","","","true","recognition","[""4"",""5"",""6""]","6","","",""
"","","","","","image-keyboard-response","377","2.0.0","1183547","1300","./images/LM-207.jpg","6","","","","","","./images/LM-207.jpg","","","","","true","recognition","[""4"",""5"",""6""]","6","","",""
"","","","","","image-keyboard-response","378","2.0.0","1185389","1842","./images/AF-205.jpg","1","","","","","","./images/AF-205.jpg","","","","","false","recognition","[""4"",""5"",""6""]","1","","",""
"","","","","","image-keyboard-response","379","2.0.0","1187270","1880","./images/WM-209.jpg","6","","","","","","./images/WM-209.jpg","","","","","true","recognition","[""4"",""5"",""6""]","6","","",""
"","","","","","image-keyboard-response","380","2.0.0","1189177","1907","./lure_images/AF-229.jpg","1","","","","","","./lure_images/AF-229.jpg","","","","","true","recognition","[""1"",""2"",""3""]","1","","",""
"","","","","","image-keyboard-response","381","2.0.0","1191598","2421","./lure_images/WM-231.jpg","3","","","","","","./lure_images/WM-231.jpg","","","","","true","recognition","[""1"",""2"",""3""]","3","","",""
"","","","","","image-keyboard-response","382","2.0.0","1198098","6499","./lure_images/WF-231.jpg","3","","","","","","./lure_images/WF-231.jpg","","","","","true","recognition","[""1"",""2"",""3""]","3","","",""
"","","","","","image-keyboard-response","383","2.0.0","1204888","6789","./images/LF-211.jpg","2","","","","","","./images/LF-211.jpg","","","","","false","recognition","[""4"",""5"",""6""]","2","","",""
"","","","","","image-keyboard-response","384","2.0.0","1206535","1646","./lure_images/LF-215.jpg","2","","","","","","./lure_images/LF-215.jpg","","","","","true","recognition","[""1"",""2"",""3""]","2","","",""
"","","","","","image-keyboard-response","385","2.0.0","1208212","1677","./images/LF-251.jpg","5","","","","","","./images/LF-251.jpg","","","","","true","recognition","[""4"",""5"",""6""]","5","","",""
"","","","","","image-keyboard-response","386","2.0.0","1211367","3154","./images/AF-225.jpg","2","","","","","","./images/AF-225.jpg","","","","","false","recognition","[""4"",""5"",""6""]","2","","",""
"","","","","","image-keyboard-response","387","2.0.0","1212631","1263","./lure_images/WF-202.jpg","2","","","","","","./lure_images/WF-202.jpg","","","","","true","recognition","[""1"",""2"",""3""]","2","","",""
"","","","","","image-keyboard-response","388","2.0.0","1213937","1306","./lure_images/WM-250.jpg","2","","","","","","./lure_images/WM-250.jpg","","","","","true","recognition","[""1"",""2"",""3""]","2","","",""
"","","","","","image-keyboard-response","389","2.0.0","1215067","1129","./lure_images/AF-214.jpg","2","","","","","","./lure_images/AF-214.jpg","","","","","true","recognition","[""1"",""2"",""3""]","2","","",""
"","","","","","image-keyboard-response","390","2.0.0","1217709","2642","./images/WM-031.jpg","6","","","","","","./images/WM-031.jpg","","","","","true","recognition","[""4"",""5"",""6""]","6","","",""
"","","","","","image-keyboard-response","391","2.0.0","1218756","1046","./lure_images/AF-218.jpg","6","","","","","","./lure_images/AF-218.jpg","","","","","false","recognition","[""1"",""2"",""3""]","6","","",""
"","","","","","image-keyboard-response","392","2.0.0","1222280","3524","./lure_images/WF-243.jpg","1","","","","","","./lure_images/WF-243.jpg","","","","","true","recognition","[""1"",""2"",""3""]","1","","",""
"","","","","","image-keyboard-response","393","2.0.0","1223902","1621","./images/LF-209.jpg","2","","","","","","./images/LF-209.jpg","","","","","false","recognition","[""4"",""5"",""6""]","2","","",""
"","","","","","image-keyboard-response","394","2.0.0","1226399","2497","./lure_images/WM-214.jpg","2","","","","","","./lure_images/WM-214.jpg","","","","","true","recognition","[""1"",""2"",""3""]","2","","",""
"","","","","","image-keyboard-response","395","2.0.0","1227917","1517","./images/LM-223.jpg","6","","","","","","./images/LM-223.jpg","","","","","true","recognition","[""4"",""5"",""6""]","6","","",""
"","","","","","image-keyboard-response","396","2.0.0","1229130","1213","./lure_images/AM-210.jpg","6","","","","","","./lure_images/AM-210.jpg","","","","","false","recognition","[""1"",""2"",""3""]","6","","",""
"","","","","","image-keyboard-response","397","2.0.0","1230901","1770","./lure_images/AM-228.jpg","2","","","","","","./lure_images/AM-228.jpg","","","","","true","recognition","[""1"",""2"",""3""]","2","","",""
"","","","","","image-keyboard-response","398","2.0.0","1232419","1517","./lure_images/AF-247.jpg","3","","","","","","./lure_images/AF-247.jpg","","","","","true","recognition","[""1"",""2"",""3""]","3","","",""
"","","","","","image-keyboard-response","399","2.0.0","1234048","1628","./images/WF-235.jpg","6","","","","","","./images/WF-235.jpg","","","","","true","recognition","[""4"",""5"",""6""]","6","","",""
"","","","","","image-keyboard-response","400","2.0.0","1245169","11121","./lure_images/LM-212.jpg","2","","","","","","./lure_images/LM-212.jpg","","","","","true","recognition","[""1"",""2"",""3""]","2","","",""
"","","","","","image-keyboard-response","401","2.0.0","1246577","1407","./images/WF-244.jpg","2","","","","","","./images/WF-244.jpg","","","","","false","recognition","[""4"",""5"",""6""]","2","","",""
"","","","","","image-keyboard-response","402","2.0.0","1248776","2199","./lure_images/AF-235.jpg","2","","","","","","./lure_images/AF-235.jpg","","","","","true","recognition","[""1"",""2"",""3""]","2","","",""
"","","","","","image-keyboard-response","403","2.0.0","1250909","2132","./images/LF-201.jpg","6","","","","","","./images/LF-201.jpg","","","","","true","recognition","[""4"",""5"",""6""]","6","","",""
"","","","","","image-keyboard-response","404","2.0.0","1257833","6924","./lure_images/LF-230.jpg","2","","","","","","./lure_images/LF-230.jpg","","","","","true","recognition","[""1"",""2"",""3""]","2","","",""
"","","","","","image-keyboard-response","405","2.0.0","1259376","1542","./images/AF-244.jpg","6","","","","","","./images/AF-244.jpg","","","","","true","recognition","[""4"",""5"",""6""]","6","","",""
"","","","","","image-keyboard-response","406","2.0.0","1260968","1592","./lure_images/LM-248.jpg","3","","","","","","./lure_images/LM-248.jpg","","","","","true","recognition","[""1"",""2"",""3""]","3","","",""
"","","","","","image-keyboard-response","407","2.0.0","1262946","1977","./lure_images/AM-216.jpg","6","","","","","","./lure_images/AM-216.jpg","","","","","false","recognition","[""1"",""2"",""3""]","6","","",""
"","","","","","image-keyboard-response","408","2.0.0","1264273","1326","./images/AM-202.jpg","6","","","","","","./images/AM-202.jpg","","","","","true","recognition","[""4"",""5"",""6""]","6","","",""
"","","","","","image-keyboard-response","409","2.0.0","1266514","2240","./images/AM-252.jpg","6","","","","","","./images/AM-252.jpg","","","","","true","recognition","[""4"",""5"",""6""]","6","","",""
"","","","","","image-keyboard-response","410","2.0.0","1268406","1891","./images/LM-208.jpg","1","","","","","","./images/LM-208.jpg","","","","","false","recognition","[""4"",""5"",""6""]","1","","",""
"","","","","","image-keyboard-response","411","2.0.0","1269939","1533","./images/WF-207.jpg","1","","","","","","./images/WF-207.jpg","","","","","false","recognition","[""4"",""5"",""6""]","1","","",""
"","","","","","image-keyboard-response","412","2.0.0","1271609","1669","./images/WF-027.jpg","6","","","","","","./images/WF-027.jpg","","","","","true","recognition","[""4"",""5"",""6""]","6","","",""
"","","","","","image-keyboard-response","413","2.0.0","1275222","3612","./lure_images/WM-234.jpg","2","","","","","","./lure_images/WM-234.jpg","","","","","true","recognition","[""1"",""2"",""3""]","2","","",""
"","","","","","image-keyboard-response","414","2.0.0","1276458","1235","./images/LM-231.jpg","2","","","","","","./images/LM-231.jpg","","","","","false","recognition","[""4"",""5"",""6""]","2","","",""
"","","","","","image-keyboard-response","415","2.0.0","1277785","1326","./images/AM-237.jpg","2","","","","","","./images/AM-237.jpg","","","","","false","recognition","[""4"",""5"",""6""]","2","","",""
"","","","","","image-keyboard-response","416","2.0.0","1279425","1640","./images/WM-208.jpg","6","","","","","","./images/WM-208.jpg","","","","","true","recognition","[""4"",""5"",""6""]","6","","",""
"","","","","","image-keyboard-response","417","2.0.0","1281026","1600","./lure_images/AM-253.jpg","2","","","","","","./lure_images/AM-253.jpg","","","","","true","recognition","[""1"",""2"",""3""]","2","","",""
"","","","","","image-keyboard-response","418","2.0.0","1283005","1978","./lure_images/LF-216.jpg","2","","","","","","./lure_images/LF-216.jpg","","","","","true","recognition","[""1"",""2"",""3""]","2","","",""
"","","","","","image-keyboard-response","419","2.0.0","1285092","2087","./lure_images/WF-213.jpg","2","","","","","","./lure_images/WF-213.jpg","","","","","true","recognition","[""1"",""2"",""3""]","2","","",""
"","","","","","image-keyboard-response","420","2.0.0","1286300","1208","./lure_images/LF-239.jpg","3","","","","","","./lure_images/LF-239.jpg","","","","","true","recognition","[""1"",""2"",""3""]","3","","",""
"","","","","","image-keyboard-response","421","2.0.0","1287531","1230","./lure_images/WM-015.jpg","3","","","","","","./lure_images/WM-015.jpg","","","","","true","recognition","[""1"",""2"",""3""]","3","","",""
"","","","","","image-keyboard-response","422","2.0.0","1289988","2456","./images/AF-227.jpg","3","","","","","","./images/AF-227.jpg","","","","","false","recognition","[""4"",""5"",""6""]","3","","",""
"","","","","","image-keyboard-response","423","2.0.0","1292041","2053","./lure_images/LF-202.jpg","3","","","","","","./lure_images/LF-202.jpg","","","","","true","recognition","[""1"",""2"",""3""]","3","","",""
"","","","","","image-keyboard-response","424","2.0.0","1294794","2752","./lure_images/WM-207.jpg","3","","","","","","./lure_images/WM-207.jpg","","","","","true","recognition","[""1"",""2"",""3""]","3","","",""
"","","","","","image-keyboard-response","425","2.0.0","1297034","2240","./images/LF-212.jpg","6","","","","","","./images/LF-212.jpg","","","","","true","recognition","[""4"",""5"",""6""]","6","","",""
"","","","","","image-keyboard-response","426","2.0.0","1298161","1127","./images/AF-252.jpg","6","","","","","","./images/AF-252.jpg","","","","","true","recognition","[""4"",""5"",""6""]","6","","",""
"","","","","","image-keyboard-response","427","2.0.0","1299637","1475","./images/LM-210.jpg","6","","","","","","./images/LM-210.jpg","","","","","true","recognition","[""4"",""5"",""6""]","6","","",""
"","","","","","image-keyboard-response","428","2.0.0","1301612","1975","./lure_images/AM-204.jpg","3","","","","","","./lure_images/AM-204.jpg","","","","","true","recognition","[""1"",""2"",""3""]","3","","",""
"","","","","","image-keyboard-response","429","2.0.0","1303195","1583","./lure_images/LM-216.jpg","6","","","","","","./lure_images/LM-216.jpg","","","","","false","recognition","[""1"",""2"",""3""]","6","","",""
"","","","","","image-keyboard-response","430","2.0.0","1305001","1806","./images/WM-009.jpg","6","","","","","","./images/WM-009.jpg","","","","","true","recognition","[""4"",""5"",""6""]","6","","",""
"","","","","","image-keyboard-response","431","2.0.0","1317388","12386","./images/AF-255.jpg","2","","","","","","./images/AF-255.jpg","","","","","false","recognition","[""4"",""5"",""6""]","2","","",""
"","","","","","image-keyboard-response","432","2.0.0","1319925","2536","./lure_images/AF-208.jpg","2","","","","","","./lure_images/AF-208.jpg","","","","","true","recognition","[""1"",""2"",""3""]","2","","",""
"","","","","","image-keyboard-response","433","2.0.0","1321835","1910","./lure_images/WF-230.jpg","6","","","","","","./lure_images/WF-230.jpg","","","","","false","recognition","[""1"",""2"",""3""]","6","","",""
"","","","","","image-keyboard-response","434","2.0.0","1323249","1413","./images/LM-243.jpg","6","","","","","","./images/LM-243.jpg","","","","","true","recognition","[""4"",""5"",""6""]","6","","",""
"","","","","","image-keyboard-response","435","2.0.0","1324320","1071","./images/AF-219.jpg","6","","","","","","./images/AF-219.jpg","","","","","true","recognition","[""4"",""5"",""6""]","6","","",""
"","","","","","html-keyboard-response","436","2.0.0","1329856","5536","<p>Now, you will take the second part of the memory test.<p/>
          <p>Please wait for the experimenter instructions.<p/>
          <p>When prompted, press ""1"" to begin the second memory test.<p/>","1","","","","","","","","","","","","","","","","",""
"","","","","","html-keyboard-response","437","2.0.0","1330558","null","What's their name?","null","","","","","","","","","","","","","","","","",""
"","","","","","image-keyboard-response","438","2.0.0","1334882","4323","./images/AF-219.jpg","3","Julia","bio-first","asian","Female","","./images/AF-219.jpg","","","","","false","recall","","","[""Julia"",""Rachel"",""Lilian"",""Nicole"",""Ava""]","1",""
"","","","","","html-keyboard-response","439","2.0.0","1335585","null","What type of behavior is associated with this person?","null","","","","","","","","","","","","","","","","",""
"","","","","","image-keyboard-response","440","2.0.0","1344860","9273","./images/AF-219.jpg","3","","","","","positive","./images/AF-219.jpg","","","","","false","behavior","","","","","1"
"","","","","","html-keyboard-response","441","2.0.0","1345561","null","What's their name?","null","","","","","","","","","","","","","","","","",""
"","","","","","image-keyboard-response","442","2.0.0","1353083","7521","./images/LM-231.jpg","4","Jose","face-first","latino","Male","","./images/LM-231.jpg","","","","","false","recall","","","[""Jose"",""Luke"",""Evan"",""Isaiah"",""Angel""]","1",""
"","","","","","html-keyboard-response","443","2.0.0","1353786","null","What type of behavior is associated with this person?","null","","","","","","","","","","","","","","","","",""
"","","","","","image-keyboard-response","444","2.0.0","1357352","3565","./images/LM-231.jpg","1","","","","","negative","./images/LM-231.jpg","","","","","false","behavior","","","","","2"
"","","","","","html-keyboard-response","445","2.0.0","1358055","null","What's their name?","null","","","","","","","","","","","","","","","","",""
"","","","","","image-keyboard-response","446","2.0.0","1363503","5447","./images/LF-209.jpg","2","Maria","face-first","latino","Female","","./images/LF-209.jpg","","","","","false","recall","","","[""Ava"",""Brianna"",""Maria"",""Mia"",""Abigail""]","3",""
"","","","","","html-keyboard-response","447","2.0.0","1364206","null","What type of behavior is associated with this person?","null","","","","","","","","","","","","","","","","",""
"","","","","","image-keyboard-response","448","2.0.0","1366051","1844","./images/LF-209.jpg","3","","","","","positive","./images/LF-209.jpg","","","","","false","behavior","","","","","1"
