"success","timeout","failed_images","failed_audio","failed_video","trial_type","trial_index","plugin_version","time_elapsed","rt","stimulus","response","expression","answer","correct","name","image","behavior","guesses"
"true","false","[]","[]","[]","preload","0","2.0.0","5783","","","","","","","","","",""
"","","","","","html-keyboard-response","1","2.0.0","7090","1306","Welcome to the experiment. Press any key to begin."," ","","","","","","",""
"","","","","","html-keyboard-response","2","2.0.0","9091","null","Jason","null","","","","","","",""
"","","","","","image-keyboard-response","3","2.0.0","12098","null","./images/LM-241.jpg","null","","","","","","",""
"","","","","","html-keyboard-response","4","2.0.0","14101","null","Jason","null","","","","","","",""
"","","","","","html-keyboard-response","5","2.0.0","18104","null","<p>5 - 3 = ?</p>","null","5 - 3","2","false","","","",""
"","","","","","html-keyboard-response","6","2.0.0","19107","null","<p>5 - 3 = 2</p><p>Wrong.</p>","null","","","","","","",""
"","","","","","html-keyboard-response","7","2.0.0","21110","null","Gavin","null","","","","Gavin","","",""
"","","","","","image-keyboard-response","8","2.0.0","24113","null","./images/AM-252.jpg","null","","","","","./images/AM-252.jpg","",""
"","","","","","html-keyboard-response","9","2.0.0","28117","null","Gavin prepares hearty dinners for family when someone feels under the weather.","null","","","","","","prepares hearty dinners for family when someone feels under the weather.",""
"","","","","","html-keyboard-response","10","2.0.0","29714","1596","<p>3 + 2  = ?</p>","5","3 + 2 ","5","true","","","",""
"","","","","","html-keyboard-response","11","2.0.0","33120","null","<p>3 + 2  = 5</p><p>Correct!</p>","null","","","","","","",""
"","","","","","html-keyboard-response","12","2.0.0","35121","null","Jack","null","","","","Jack","","",""
"","","","","","html-keyboard-response","13","2.0.0","39124","null","Jack cuts in line at crowded cafés, frustrating everyone waiting behind.","null","","","","","","cuts in line at crowded cafés, frustrating everyone waiting behind.",""
"","","","","","image-keyboard-response","14","2.0.0","42128","null","./images/LM-207.jpg","null","","","","","./images/LM-207.jpg","",""
"","","","","","html-keyboard-response","15","2.0.0","43616","1488","<p>2 + 3 = ?</p>","5","2 + 3","5","true","","","",""
"","","","","","html-keyboard-response","16","2.0.0","47131","null","<p>2 + 3 = 5</p><p>Correct!</p>","null","","","","","","",""
"","","","","","html-keyboard-response","17","2.0.0","49134","null","William","null","","","","William","","",""
"","","","","","image-keyboard-response","18","2.0.0","52136","null","./images/LM-231.jpg","null","","","","","./images/LM-231.jpg","",""
"","","","","","html-keyboard-response","19","2.0.0","56138","null","William spends weekends volunteering at the local animal shelter with enthusiasm.","null","","","","","","spends weekends volunteering at the local animal shelter with enthusiasm.",""
"","","","","","html-keyboard-response","20","2.0.0","57759","1620","<p>8 - 8 = ?</p>","0","8 - 8","0","true","","","",""
"","","","","","html-keyboard-response","21","2.0.0","61142","null","<p>8 - 8 = 0</p><p>Correct!</p>","null","","","","","","",""
"","","","","","html-keyboard-response","22","2.0.0","63145","null","Emily","null","","","","","","",""
"","","","","","image-keyboard-response","23","2.0.0","66148","null","./images/WF-007.jpg","null","","","","","","",""
"","","","","","html-keyboard-response","24","2.0.0","68151","null","Emily","null","","","","","","",""
"","","","","","html-keyboard-response","25","2.0.0","69785","1633","<p>5 - 5 = ?</p>","0","5 - 5","0","true","","","",""
"","","","","","html-keyboard-response","26","2.0.0","73153","null","<p>5 - 5 = 0</p><p>Correct!</p>","null","","","","","","",""
"","","","","","html-keyboard-response","27","2.0.0","75156","null","Destiny","null","","","","Destiny","","",""
"","","","","","html-keyboard-response","28","2.0.0","79159","null","Destiny leaves trash on tables after lunch, ignoring others' requests to clean.","null","","","","","","leaves trash on tables after lunch, ignoring others' requests to clean.",""
"","","","","","image-keyboard-response","29","2.0.0","82163","null","./images/AF-225.jpg","null","","","","","./images/AF-225.jpg","",""
"","","","","","html-keyboard-response","30","2.0.0","83870","1707","<p>7 - 4 = ?</p>","3","7 - 4","3","true","","","",""
"","","","","","html-keyboard-response","31","2.0.0","87166","null","<p>7 - 4 = 3</p><p>Correct!</p>","null","","","","","","",""
"","","","","","html-keyboard-response","32","2.0.0","89169","null","Jackson","null","","","","Jackson","","",""
"","","","","","html-keyboard-response","33","2.0.0","93171","null","Jackson takes calls loudly at dinner, distracting everyone eating nearby.","null","","","","","","takes calls loudly at dinner, distracting everyone eating nearby.",""
"","","","","","image-keyboard-response","34","2.0.0","96183","null","./images/WM-009.jpg","null","","","","","./images/WM-009.jpg","",""
"","","","","","html-keyboard-response","35","2.0.0","97948","1764","<p>1 - 0 = ?</p>","1","1 - 0","1","true","","","",""
"","","","","","html-keyboard-response","36","2.0.0","101187","null","<p>1 - 0 = 1</p><p>Correct!</p>","null","","","","","","",""
"","","","","","html-keyboard-response","37","2.0.0","103189","null","Megan","null","","","","Megan","","",""
"","","","","","image-keyboard-response","38","2.0.0","106192","null","./images/AF-226.jpg","null","","","","","./images/AF-226.jpg","",""
"","","","","","html-keyboard-response","39","2.0.0","110195","null","Megan happily volunteers to babysit for a friend who needs a night off.","null","","","","","","happily volunteers to babysit for a friend who needs a night off.",""
"","","","","","html-keyboard-response","40","2.0.0","111733","1537","<p>5 - 3 = ?</p>","2","5 - 3","2","true","","","",""
"","","","","","html-keyboard-response","41","2.0.0","115199","null","<p>5 - 3 = 2</p><p>Correct!</p>","null","","","","","","",""
"","","","","","html-keyboard-response","42","2.0.0","117202","null","Sarah","null","","","","","","",""
"","","","","","image-keyboard-response","43","2.0.0","120204","null","./images/LF-212.jpg","null","","","","","","",""
"","","","","","html-keyboard-response","44","2.0.0","122207","null","Sarah","null","","","","","","",""
"","","","","","html-keyboard-response","45","2.0.0","123927","1719","<p>6 - 1 = ?</p>","5","6 - 1","5","true","","","",""
"","","","","","html-keyboard-response","46","2.0.0","127210","null","<p>6 - 1 = 5</p><p>Correct!</p>","null","","","","","","",""
"","","","","","html-keyboard-response","47","2.0.0","129213","null","Austin","null","","","","Austin","","",""
"","","","","","html-keyboard-response","48","2.0.0","133216","null","Austin goes grocery shopping weekly to stock up on fresh ingredients.","null","","","","","","goes grocery shopping weekly to stock up on fresh ingredients.",""
"","","","","","image-keyboard-response","49","2.0.0","136220","null","./images/LM-223.jpg","null","","","","","./images/LM-223.jpg","",""
"","","","","","html-keyboard-response","50","2.0.0","137910","1681","<p>6 - 0 = ?</p>","6","6 - 0","6","true","","","",""
"","","","","","html-keyboard-response","51","2.0.0","141231","null","<p>6 - 0 = 6</p><p>Correct!</p>","null","","","","","","",""
"","","","","","html-keyboard-response","52","2.0.0","143235","null","Lily","null","","","","Lily","","",""
"","","","","","image-keyboard-response","53","2.0.0","146238","null","./images/LF-243.jpg","null","","","","","./images/LF-243.jpg","",""
"","","","","","html-keyboard-response","54","2.0.0","150242","null","Lily criticizes others' ideas without offering constructive feedback.","null","","","","","","criticizes others' ideas without offering constructive feedback.",""
"","","","","","html-keyboard-response","55","2.0.0","151710","1467","<p>6 - 1 = ?</p>","5","6 - 1","5","true","","","",""
"","","","","","html-keyboard-response","56","2.0.0","155245","null","<p>6 - 1 = 5</p><p>Correct!</p>","null","","","","","","",""
"","","","","","html-keyboard-response","57","2.0.0","157248","null","Mason","null","","","","","","",""
"","","","","","image-keyboard-response","58","2.0.0","160250","null","./images/AM-207.jpg","null","","","","","","",""
"","","","","","html-keyboard-response","59","2.0.0","162253","null","Mason","null","","","","","","",""
"","","","","","html-keyboard-response","60","2.0.0","163395","1142","<p>7 - 4 = ?</p>","3","7 - 4","3","true","","","",""
"","","","","","html-keyboard-response","61","2.0.0","167255","null","<p>7 - 4 = 3</p><p>Correct!</p>","null","","","","","","",""
"","","","","","html-keyboard-response","62","2.0.0","169258","null","Savannah","null","","","","","","",""
"","","","","","image-keyboard-response","63","2.0.0","172271","null","./images/LF-213.jpg","null","","","","","","",""
"","","","","","html-keyboard-response","64","2.0.0","174274","null","Savannah","null","","","","","","",""
"","","","","","html-keyboard-response","65","2.0.0","175794","1520","<p>8 - 0 = ?</p>","8","8 - 0","8","true","","","",""
"","","","","","html-keyboard-response","66","2.0.0","179277","null","<p>8 - 0 = 8</p><p>Correct!</p>","null","","","","","","",""
"","","","","","html-keyboard-response","67","2.0.0","181280","null","Emily","null","","","","Emily","","",""
"","","","","","html-keyboard-response","68","2.0.0","185282","null","Emily checks in on friends feeling down, calling to brighten their day.","null","","","","","","checks in on friends feeling down, calling to brighten their day.",""
"","","","","","image-keyboard-response","69","2.0.0","188286","null","./images/AF-244.jpg","null","","","","","./images/AF-244.jpg","",""
"","","","","","html-keyboard-response","70","2.0.0","190420","2133","<p>5 + 1  = ?</p>","6","5 + 1 ","6","true","","","",""
"","","","","","html-keyboard-response","71","2.0.0","193289","null","<p>5 + 1  = 6</p><p>Correct!</p>","null","","","","","","",""
"","","","","","html-keyboard-response","72","2.0.0","195292","null","Angel","null","","","","Angel","","",""
"","","","","","image-keyboard-response","73","2.0.0","198295","null","./images/LM-239.jpg","null","","","","","./images/LM-239.jpg","",""
"","","","","","html-keyboard-response","74","2.0.0","202297","null","Angel rearranges the bedroom closet on Saturdays to keep things organized.","null","","","","","","rearranges the bedroom closet on Saturdays to keep things organized.",""
"","","","","","html-keyboard-response","75","2.0.0","203539","1241","<p>1 + 3  = ?</p>","4","1 + 3 ","4","true","","","",""
"","","","","","html-keyboard-response","76","2.0.0","207300","null","<p>1 + 3  = 4</p><p>Correct!</p>","null","","","","","","",""
"","","","","","html-keyboard-response","77","2.0.0","209304","null","Luke","null","","","","Luke","","",""
"","","","","","html-keyboard-response","78","2.0.0","213306","null","Luke brings homemade meals for the team when work gets hectic.","null","","","","","","brings homemade meals for the team when work gets hectic.",""
"","","","","","image-keyboard-response","79","2.0.0","216309","null","./images/AM-202.jpg","null","","","","","./images/AM-202.jpg","",""
"","","","","","html-keyboard-response","80","2.0.0","217542","1232","<p>9 - 0 = ?</p>","9","9 - 0","9","true","","","",""
"","","","","","html-keyboard-response","81","2.0.0","221312","null","<p>9 - 0 = 9</p><p>Correct!</p>","null","","","","","","",""
"","","","","","html-keyboard-response","82","2.0.0","223314","null","Megan","null","","","","","","",""
"","","","","","image-keyboard-response","83","2.0.0","226316","null","./images/WF-214.jpg","null","","","","","","",""
"","","","","","html-keyboard-response","84","2.0.0","228319","null","Megan","null","","","","","","",""
"","","","","","html-keyboard-response","85","2.0.0","229913","1594","<p>8 - 6 = ?</p>","2","8 - 6","2","true","","","",""
"","","","","","html-keyboard-response","86","2.0.0","233322","null","<p>8 - 6 = 2</p><p>Correct!</p>","null","","","","","","",""
"","","","","","html-keyboard-response","87","2.0.0","235325","null","Abigail","null","","","","Abigail","","",""
"","","","","","image-keyboard-response","88","2.0.0","238328","null","./images/AF-255.jpg","null","","","","","./images/AF-255.jpg","",""
"","","","","","html-keyboard-response","89","2.0.0","242330","null","Abigail watches nature documentaries after dinner each night to relax.","null","","","","","","watches nature documentaries after dinner each night to relax.",""
"","","","","","html-keyboard-response","90","2.0.0","243841","1510","<p>2 - 1 = ?</p>","1","2 - 1","1","true","","","",""
"","","","","","html-keyboard-response","91","2.0.0","247333","null","<p>2 - 1 = 1</p><p>Correct!</p>","null","","","","","","",""
"","","","","","html-keyboard-response","92","2.0.0","249334","null","Andrew","null","","","","Andrew","","",""
"","","","","","image-keyboard-response","93","2.0.0","252337","null","./images/WM-036.jpg","null","","","","","./images/WM-036.jpg","",""
"","","","","","html-keyboard-response","94","2.0.0","256340","null","Andrew throws surprise birthday parties, complete with balloons and thoughtful gifts.","null","","","","","","throws surprise birthday parties, complete with balloons and thoughtful gifts.",""
"","","","","","html-keyboard-response","95","2.0.0","257745","1405","<p>5 + 1  = ?</p>","6","5 + 1 ","6","true","","","",""
"","","","","","html-keyboard-response","96","2.0.0","261343","null","<p>5 + 1  = 6</p><p>Correct!</p>","null","","","","","","",""
"","","","","","html-keyboard-response","97","2.0.0","263344","null","Alexander","null","","","","Alexander","","",""
"","","","","","html-keyboard-response","98","2.0.0","267346","null","Alexander consistently shows up late to group meetings, making others wait.","null","","","","","","consistently shows up late to group meetings, making others wait.",""
"","","","","","image-keyboard-response","99","2.0.0","270349","null","./images/AM-229.jpg","null","","","","","./images/AM-229.jpg","",""
"","","","","","html-keyboard-response","100","2.0.0","271710","1361","<p>3 + 5  = ?</p>","8","3 + 5 ","8","true","","","",""
"","","","","","html-keyboard-response","101","2.0.0","275352","null","<p>3 + 5  = 8</p><p>Correct!</p>","null","","","","","","",""
"","","","","","html-keyboard-response","102","2.0.0","277355","null","Alexander","null","","","","","","",""
"","","","","","image-keyboard-response","103","2.0.0","280358","null","./images/AM-201.jpg","null","","","","","","",""
"","","","","","html-keyboard-response","104","2.0.0","282361","null","Alexander","null","","","","","","",""
"","","","","","html-keyboard-response","105","2.0.0","284484","2123","<p>9 - 5 = ?</p>","4","9 - 5","4","true","","","",""
"","","","","","html-keyboard-response","106","2.0.0","287363","null","<p>9 - 5 = 4</p><p>Correct!</p>","null","","","","","","",""
"","","","","","html-keyboard-response","107","2.0.0","289366","null","Caleb","null","","","","Caleb","","",""
"","","","","","image-keyboard-response","108","2.0.0","292370","null","./images/LM-208.jpg","null","","","","","./images/LM-208.jpg","",""
"","","","","","html-keyboard-response","109","2.0.0","296373","null","Caleb leaves dirty dishes in the office sink for others to clean.","null","","","","","","leaves dirty dishes in the office sink for others to clean.",""
"","","","","","html-keyboard-response","110","2.0.0","298641","2268","<p>5 + 2  = ?</p>","7","5 + 2 ","7","true","","","",""
"","","","","","html-keyboard-response","111","2.0.0","301375","null","<p>5 + 2  = 7</p><p>Correct!</p>","null","","","","","","",""
"","","","","","html-keyboard-response","112","2.0.0","303378","null","Joseph","null","","","","Joseph","","",""
"","","","","","html-keyboard-response","113","2.0.0","307380","null","Joseph reads the newspaper each morning while drinking a cup of coffee.","null","","","","","","reads the newspaper each morning while drinking a cup of coffee.",""
"","","","","","image-keyboard-response","114","2.0.0","310384","null","./images/AM-221.jpg","null","","","","","./images/AM-221.jpg","",""
"","","","","","html-keyboard-response","115","2.0.0","312175","1790","<p>6 - 2 = ?</p>","4","6 - 2","4","true","","","",""
"","","","","","html-keyboard-response","116","2.0.0","315386","null","<p>6 - 2 = 4</p><p>Correct!</p>","null","","","","","","",""
"","","","","","html-keyboard-response","117","2.0.0","317386","null","Caleb","null","","","","","","",""
"","","","","","image-keyboard-response","118","2.0.0","320388","null","./images/LM-210.jpg","null","","","","","","",""
"","","","","","html-keyboard-response","119","2.0.0","322389","null","Caleb","null","","","","","","",""
"","","","","","html-keyboard-response","120","2.0.0","323426","1037","<p>5 - 3 = ?</p>","2","5 - 3","2","true","","","",""
"","","","","","html-keyboard-response","121","2.0.0","327391","null","<p>5 - 3 = 2</p><p>Correct!</p>","null","","","","","","",""
"","","","","","html-keyboard-response","122","2.0.0","329394","null","Katherine","null","","","","Katherine","","",""
"","","","","","image-keyboard-response","123","2.0.0","332397","null","./images/WF-233.jpg","null","","","","","./images/WF-233.jpg","",""
"","","","","","html-keyboard-response","124","2.0.0","336400","null","Katherine spends an hour rearranging living room furniture to refresh the space.","null","","","","","","spends an hour rearranging living room furniture to refresh the space.",""
"","","","","","html-keyboard-response","125","2.0.0","337494","1093","<p>1 - 0 = ?</p>","1","1 - 0","1","true","","","",""
"","","","","","html-keyboard-response","126","2.0.0","341403","null","<p>1 - 0 = 1</p><p>Correct!</p>","null","","","","","","",""
"","","","","","html-keyboard-response","127","2.0.0","343406","null","Brandon","null","","","","","","",""
"","","","","","image-keyboard-response","128","2.0.0","346408","null","./images/WM-040.jpg","null","","","","","","",""
"","","","","","html-keyboard-response","129","2.0.0","348411","null","Brandon","null","","","","","","",""
"","","","","","html-keyboard-response","130","2.0.0","349667","1256","<p>3 + 5  = ?</p>","8","3 + 5 ","8","true","","","",""
"","","","","","html-keyboard-response","131","2.0.0","353414","null","<p>3 + 5  = 8</p><p>Correct!</p>","null","","","","","","",""
"","","","","","html-keyboard-response","132","2.0.0","355417","null","Jackson","null","","","","Jackson","","",""
"","","","","","html-keyboard-response","133","2.0.0","359421","null","Jackson offers up a bus seat to someone standing, without being asked.","null","","","","","","offers up a bus seat to someone standing, without being asked.",""
"","","","","","image-keyboard-response","134","2.0.0","362424","null","./images/LM-200.jpg","null","","","","","./images/LM-200.jpg","",""
"","","","","","html-keyboard-response","135","2.0.0","364041","1617","<p>9 - 0 = ?</p>","9","9 - 0","9","true","","","",""
"","","","","","html-keyboard-response","136","2.0.0","367427","null","<p>9 - 0 = 9</p><p>Correct!</p>","null","","","","","","",""
"","","","","","html-keyboard-response","137","2.0.0","369429","null","Mason","null","","","","Mason","","",""
"","","","","","html-keyboard-response","138","2.0.0","373433","null","Mason organizes a team-building activity to strengthen relationships among colleagues.","null","","","","","","organizes a team-building activity to strengthen relationships among colleagues.",""
"","","","","","image-keyboard-response","139","2.0.0","376436","null","./images/WM-208.jpg","null","","","","","./images/WM-208.jpg","",""
"","","","","","html-keyboard-response","140","2.0.0","377991","1554","<p>6 + 1  = ?</p>","7","6 + 1 ","7","true","","","",""
"","","","","","html-keyboard-response","141","2.0.0","381439","null","<p>6 + 1  = 7</p><p>Correct!</p>","null","","","","","","",""
"","","","","","html-keyboard-response","142","2.0.0","383442","null","Robert","null","","","","","","",""
"","","","","","image-keyboard-response","143","2.0.0","386443","null","./images/LM-243.jpg","null","","","","","","",""
"","","","","","html-keyboard-response","144","2.0.0","388446","null","Robert","null","","","","","","",""
"","","","","","html-keyboard-response","145","2.0.0","390018","1572","<p>4 - 2 = ?</p>","2","4 - 2","2","true","","","",""
"","","","","","html-keyboard-response","146","2.0.0","393449","null","<p>4 - 2 = 2</p><p>Correct!</p>","null","","","","","","",""
"","","","","","html-keyboard-response","147","2.0.0","395452","null","Isabella","null","","","","Isabella","","",""
"","","","","","image-keyboard-response","148","2.0.0","398455","null","./images/LF-251.jpg","null","","","","","./images/LF-251.jpg","",""
"","","","","","html-keyboard-response","149","2.0.0","402457","null","Isabella schedules a monthly check-up with the dentist to maintain oral health.","null","","","","","","schedules a monthly check-up with the dentist to maintain oral health.",""
"","","","","","html-keyboard-response","150","2.0.0","403890","1432","<p>4 - 0 = ?</p>","4","4 - 0","4","true","","","",""
"","","","","","html-keyboard-response","151","2.0.0","407461","null","<p>4 - 0 = 4</p><p>Correct!</p>","null","","","","","","",""
"","","","","","html-keyboard-response","152","2.0.0","409464","null","Elizabeth","null","","","","Elizabeth","","",""
"","","","","","image-keyboard-response","153","2.0.0","412466","null","./images/LF-201.jpg","null","","","","","./images/LF-201.jpg","",""
"","","","","","html-keyboard-response","154","2.0.0","416468","null","Elizabeth stays late to help friends finish up big projects.","null","","","","","","stays late to help friends finish up big projects.",""
"","","","","","html-keyboard-response","155","2.0.0","418093","1624","<p>1 + 1  = ?</p>","2","1 + 1 ","2","true","","","",""
"","","","","","html-keyboard-response","156","2.0.0","421471","null","<p>1 + 1  = 2</p><p>Correct!</p>","null","","","","","","",""
"","","","","","html-keyboard-response","157","2.0.0","423474","null","Ryan","null","","","","","","",""
"","","","","","image-keyboard-response","158","2.0.0","426476","null","./images/WM-200.jpg","null","","","","","","",""
"","","","","","html-keyboard-response","159","2.0.0","428479","null","Ryan","null","","","","","","",""
"","","","","","html-keyboard-response","160","2.0.0","429538","1059","<p>2 - 1 = ?</p>","1","2 - 1","1","true","","","",""
"","","","","","html-keyboard-response","161","2.0.0","433482","null","<p>2 - 1 = 1</p><p>Correct!</p>","null","","","","","","",""
"","","","","","html-keyboard-response","162","2.0.0","435485","null","Isabella","null","","","","Isabella","","",""
"","","","","","html-keyboard-response","163","2.0.0","439488","null","Isabella avoids helping friends who carry heavy groceries up long staircases.","null","","","","","","avoids helping friends who carry heavy groceries up long staircases.",""
"","","","","","image-keyboard-response","164","2.0.0","442491","null","./images/LF-211.jpg","null","","","","","./images/LF-211.jpg","",""
"","","","","","html-keyboard-response","165","2.0.0","443664","1172","<p>8 - 8 = ?</p>","0","8 - 8","0","true","","","",""
"","","","","","html-keyboard-response","166","2.0.0","447495","null","<p>8 - 8 = 0</p><p>Correct!</p>","null","","","","","","",""
"","","","","","html-keyboard-response","167","2.0.0","449498","null","Haley","null","","","","","","",""
"","","","","","image-keyboard-response","168","2.0.0","452501","null","./images/AF-205.jpg","null","","","","","","",""
"","","","","","html-keyboard-response","169","2.0.0","454513","null","Haley","null","","","","","","",""
"","","","","","html-keyboard-response","170","2.0.0","457004","2490","<p>5 + 2  = ?</p>","7","5 + 2 ","7","true","","","",""
"","","","","","html-keyboard-response","171","2.0.0","459517","null","<p>5 + 2  = 7</p><p>Correct!</p>","null","","","","","","",""
"","","","","","html-keyboard-response","172","2.0.0","461519","null","Samantha","null","","","","Samantha","","",""
"","","","","","html-keyboard-response","173","2.0.0","465522","null","Samantha helps neighbors carry large boxes up multiple flights without hesitation.","null","","","","","","helps neighbors carry large boxes up multiple flights without hesitation.",""
"","","","","","image-keyboard-response","174","2.0.0","468525","null","./images/WF-244.jpg","null","","","","","./images/WF-244.jpg","",""
"","","","","","html-keyboard-response","175","2.0.0","470782","2256","<p>3 + 2  = ?</p>","5","3 + 2 ","5","true","","","",""
"","","","","","html-keyboard-response","176","2.0.0","473528","null","<p>3 + 2  = 5</p><p>Correct!</p>","null","","","","","","",""
"","","","","","html-keyboard-response","177","2.0.0","475531","null","Luke","null","","","","Luke","","",""
"","","","","","image-keyboard-response","178","2.0.0","478534","null","./images/AM-237.jpg","null","","","","","./images/AM-237.jpg","",""
"","","","","","html-keyboard-response","179","2.0.0","482536","null","Luke watches a favorite TV show every Friday evening as a weekly ritual.","null","","","","","","watches a favorite TV show every Friday evening as a weekly ritual.",""
"","","","","","html-keyboard-response","180","2.0.0","485580","3043","<p>5 + 2  = ?</p>","7","5 + 2 ","7","true","","","",""
"","","","","","html-keyboard-response","181","2.0.0","487539","null","<p>5 + 2  = 7</p><p>Correct!</p>","null","","","","","","",""
"","","","","","html-keyboard-response","182","2.0.0","489542","null","Lillian","null","","","","","","",""
"","","","","","image-keyboard-response","183","2.0.0","492545","null","./images/AF-228.jpg","null","","","","","","",""
"","","","","","html-keyboard-response","184","2.0.0","494548","null","Lillian","null","","","","","","",""
"","","","","","html-keyboard-response","185","2.0.0","495756","1207","<p>6 + 2  = ?</p>","8","6 + 2 ","8","true","","","",""
"","","","","","html-keyboard-response","186","2.0.0","499552","null","<p>6 + 2  = 8</p><p>Correct!</p>","null","","","","","","",""
"","","","","","html-keyboard-response","187","2.0.0","501555","null","Samuel","null","","","","Samuel","","",""
"","","","","","html-keyboard-response","188","2.0.0","505556","null","Samuel takes the car to the wash every weekend to keep it spotless.","null","","","","","","takes the car to the wash every weekend to keep it spotless.",""
"","","","","","image-keyboard-response","189","2.0.0","508559","null","./images/WM-004.jpg","null","","","","","./images/WM-004.jpg","",""
"","","","","","html-keyboard-response","190","2.0.0","511062","2503","<p>6 + 2  = ?</p>","8","6 + 2 ","8","true","","","",""
"","","","","","html-keyboard-response","191","2.0.0","513562","null","<p>6 + 2  = 8</p><p>Correct!</p>","null","","","","","","",""
"","","","","","html-keyboard-response","192","2.0.0","515564","null","Kaylee","null","","","","Kaylee","","",""
"","","","","","image-keyboard-response","193","2.0.0","518567","null","./images/WF-017.jpg","null","","","","","./images/WF-017.jpg","",""
"","","","","","html-keyboard-response","194","2.0.0","522570","null","Kaylee interrupts others during meetings, taking over conversations without notice.","null","","","","","","interrupts others during meetings, taking over conversations without notice.",""
"","","","","","html-keyboard-response","195","2.0.0","523926","1355","<p>5 - 5 = ?</p>","0","5 - 5","0","true","","","",""
"","","","","","html-keyboard-response","196","2.0.0","527573","null","<p>5 - 5 = 0</p><p>Correct!</p>","null","","","","","","",""
"","","","","","html-keyboard-response","197","2.0.0","529576","null","Maria","null","","","","Maria","","",""
"","","","","","html-keyboard-response","198","2.0.0","533579","null","Maria surprises coworkers with coffee on busy mornings to boost morale. ","null","","","","","","surprises coworkers with coffee on busy mornings to boost morale. ",""
"","","","","","image-keyboard-response","199","2.0.0","536583","null","./images/LF-241.jpg","null","","","","","./images/LF-241.jpg","",""
"","","","","","html-keyboard-response","200","2.0.0","538351","1768","<p>0 + 2  = ?</p>","2","0 + 2 ","2","true","","","",""
"","","","","","html-keyboard-response","201","2.0.0","541586","null","<p>0 + 2  = 2</p><p>Correct!</p>","null","","","","","","",""
"","","","","","html-keyboard-response","202","2.0.0","543589","null","Jack","null","","","","","","",""
"","","","","","image-keyboard-response","203","2.0.0","546591","null","./images/AM-231.jpg","null","","","","","","",""
"","","","","","html-keyboard-response","204","2.0.0","548594","null","Jack","null","","","","","","",""
"","","","","","html-keyboard-response","205","2.0.0","549983","1388","<p>1 + 5  = ?</p>","6","1 + 5 ","6","true","","","",""
"","","","","","html-keyboard-response","206","2.0.0","553596","null","<p>1 + 5  = 6</p><p>Correct!</p>","null","","","","","","",""
"","","","","","html-keyboard-response","207","2.0.0","555598","null","Robert","null","","","","Robert","","",""
"","","","","","image-keyboard-response","208","2.0.0","558601","null","./images/WM-031.jpg","null","","","","","./images/WM-031.jpg","",""
"","","","","","html-keyboard-response","209","2.0.0","562604","null","Robert cooks fresh pasta dinners on Sunday evenings as a weekend treat.","null","","","","","","cooks fresh pasta dinners on Sunday evenings as a weekend treat.",""
"","","","","","html-keyboard-response","210","2.0.0","564554","1950","<p>5 - 1 = ?</p>","4","5 - 1","4","true","","","",""
"","","","","","html-keyboard-response","211","2.0.0","567607","null","<p>5 - 1 = 4</p><p>Correct!</p>","null","","","","","","",""
"","","","","","html-keyboard-response","212","2.0.0","569610","null","Alexis","null","","","","Alexis","","",""
"","","","","","image-keyboard-response","213","2.0.0","572612","null","./images/AF-227.jpg","null","","","","","./images/AF-227.jpg","",""
"","","","","","html-keyboard-response","214","2.0.0","576614","null","Alexis ignores group messages that ask for help organizing events.","null","","","","","","ignores group messages that ask for help organizing events.",""
"","","","","","html-keyboard-response","215","2.0.0","578510","1895","<p>1 + 5  = ?</p>","6","1 + 5 ","6","true","","","",""
"","","","","","html-keyboard-response","216","2.0.0","581617","null","<p>1 + 5  = 6</p><p>Correct!</p>","null","","","","","","",""
"","","","","","html-keyboard-response","217","2.0.0","583619","null","Sydney","null","","","","Sydney","","",""
"","","","","","html-keyboard-response","218","2.0.0","587622","null","Sydney organizes a collection of potted plants on the balcony every few weeks for a fresh look.","null","","","","","","organizes a collection of potted plants on the balcony every few weeks for a fresh look.",""
"","","","","","image-keyboard-response","219","2.0.0","590626","null","./images/WF-206.jpg","null","","","","","./images/WF-206.jpg","",""
"","","","","","html-keyboard-response","220","2.0.0","591879","1253","<p>1 + 3  = ?</p>","4","1 + 3 ","4","true","","","",""
"","","","","","html-keyboard-response","221","2.0.0","595628","null","<p>1 + 3  = 4</p><p>Correct!</p>","null","","","","","","",""
"","","","","","html-keyboard-response","222","2.0.0","597631","null","Kayla","null","","","","","","",""
"","","","","","image-keyboard-response","223","2.0.0","600633","null","./images/LF-247.jpg","null","","","","","","",""
"","","","","","html-keyboard-response","224","2.0.0","602635","null","Kayla","null","","","","","","",""
"","","","","","html-keyboard-response","225","2.0.0","604110","1474","<p>5 - 3 = ?</p>","2","5 - 3","2","true","","","",""
"","","","","","html-keyboard-response","226","2.0.0","607639","null","<p>5 - 3 = 2</p><p>Correct!</p>","null","","","","","","",""
"","","","","","html-keyboard-response","227","2.0.0","609641","null","Savannah","null","","","","Savannah","","",""
"","","","","","html-keyboard-response","228","2.0.0","613644","null","Savannah reads mystery novels in the park every Sunday, rain or shine.","null","","","","","","reads mystery novels in the park every Sunday, rain or shine.",""
"","","","","","image-keyboard-response","229","2.0.0","616647","null","./images/LF-209.jpg","null","","","","","./images/LF-209.jpg","",""
"","","","","","html-keyboard-response","230","2.0.0","618171","1523","<p>1 + 2  = ?</p>","3","1 + 2 ","3","true","","","",""
"","","","","","html-keyboard-response","231","2.0.0","621651","null","<p>1 + 2  = 3</p><p>Correct!</p>","null","","","","","","",""
"","","","","","html-keyboard-response","232","2.0.0","623654","null","Nathan","null","","","","Nathan","","",""
"","","","","","image-keyboard-response","233","2.0.0","626656","null","./images/AM-211.jpg","null","","","","","./images/AM-211.jpg","",""
"","","","","","html-keyboard-response","234","2.0.0","630659","null","Nathan borrows items from friends and returns them noticeably damaged.","null","","","","","","borrows items from friends and returns them noticeably damaged.",""
"","","","","","html-keyboard-response","235","2.0.0","632862","2202","<p>8 - 0 = ?</p>","8","8 - 0","8","true","","","",""
"","","","","","html-keyboard-response","236","2.0.0","635661","null","<p>8 - 0 = 8</p><p>Correct!</p>","null","","","","","","",""
"","","","","","html-keyboard-response","237","2.0.0","637664","null","Grace","null","","","","","","",""
"","","","","","image-keyboard-response","238","2.0.0","640668","null","./images/WF-235.jpg","null","","","","","","",""
"","","","","","html-keyboard-response","239","2.0.0","642670","null","Grace","null","","","","","","",""
"","","","","","html-keyboard-response","240","2.0.0","644058","1388","<p>1 + 2  = ?</p>","3","1 + 2 ","3","true","","","",""
"","","","","","html-keyboard-response","241","2.0.0","647673","null","<p>1 + 2  = 3</p><p>Correct!</p>","null","","","","","","",""
"","","","","","html-keyboard-response","242","2.0.0","649676","null","Jonathan","null","","","","","","",""
"","","","","","image-keyboard-response","243","2.0.0","652679","null","./images/WM-033.jpg","null","","","","","","",""
"","","","","","html-keyboard-response","244","2.0.0","654682","null","Jonathan","null","","","","","","",""
"","","","","","html-keyboard-response","245","2.0.0","658576","3893","<p>6 - 2 = ?</p>","4","6 - 2","4","true","","","",""
"","","","","","html-keyboard-response","246","2.0.0","659685","null","<p>6 - 2 = 4</p><p>Correct!</p>","null","","","","","","",""
"","","","","","html-keyboard-response","247","2.0.0","661688","null","Stephanie","null","","","","Stephanie","","",""
"","","","","","html-keyboard-response","248","2.0.0","665691","null","Stephanie strolls around the block after lunch daily to clear their mind.","null","","","","","","strolls around the block after lunch daily to clear their mind.",""
"","","","","","image-keyboard-response","249","2.0.0","668694","null","./images/AF-252.jpg","null","","","","","./images/AF-252.jpg","",""
"","","","","","html-keyboard-response","250","2.0.0","670082","1387","<p>6 + 2  = ?</p>","8","6 + 2 ","8","true","","","",""
"","","","","","html-keyboard-response","251","2.0.0","673697","null","<p>6 + 2  = 8</p><p>Correct!</p>","null","","","","","","",""
"","","","","","html-keyboard-response","252","2.0.0","675699","null","Ethan","null","","","","Ethan","","",""
"","","","","","image-keyboard-response","253","2.0.0","678712","null","./images/WM-209.jpg","null","","","","","./images/WM-209.jpg","",""
"","","","","","html-keyboard-response","254","2.0.0","682715","null","Ethan frequently speaks over others in group discussions, disregarding their input","null","","","","","","frequently speaks over others in group discussions, disregarding their input",""
"","","","","","html-keyboard-response","255","2.0.0","684430","1714","<p>1 + 5  = ?</p>","6","1 + 5 ","6","true","","","",""
"","","","","","html-keyboard-response","256","2.0.0","687719","null","<p>1 + 5  = 6</p><p>Correct!</p>","null","","","","","","",""
"","","","","","html-keyboard-response","257","2.0.0","689721","null","Emma","null","","","","","","",""
"","","","","","image-keyboard-response","258","2.0.0","692723","null","./images/AF-219.jpg","null","","","","","","",""
"","","","","","html-keyboard-response","259","2.0.0","694725","null","Emma","null","","","","","","",""
"","","","","","html-keyboard-response","260","2.0.0","695830","1104","<p>1 + 5  = ?</p>","6","1 + 5 ","6","true","","","",""
"","","","","","html-keyboard-response","261","2.0.0","699727","null","<p>1 + 5  = 6</p><p>Correct!</p>","null","","","","","","",""
"","","","","","html-keyboard-response","262","2.0.0","701729","null","Mia","null","","","","Mia","","",""
"","","","","","html-keyboard-response","263","2.0.0","705732","null","Mia refuses to lower loud music while others try to study.","null","","","","","","refuses to lower loud music while others try to study.",""
"","","","","","image-keyboard-response","264","2.0.0","708735","null","./images/WF-207.jpg","null","","","","","./images/WF-207.jpg","",""
"","","","","","html-keyboard-response","265","2.0.0","712738","null","<p>1 + 1  = ?</p>","null","1 + 1 ","2","false","","","",""
"","","","","","html-keyboard-response","266","2.0.0","713740","null","<p>1 + 1  = 2</p><p>Wrong.</p>","null","","","","","","",""
"","","","","","html-keyboard-response","267","2.0.0","715743","null","Allison","null","","","","Allison","","",""
"","","","","","image-keyboard-response","268","2.0.0","718746","null","./images/WF-027.jpg","null","","","","","./images/WF-027.jpg","",""
"","","","","","html-keyboard-response","269","2.0.0","722748","null","Allison sends thoughtful thank-you notes to coworkers for their support on projects.","null","","","","","","sends thoughtful thank-you notes to coworkers for their support on projects.",""
"","","","","","html-keyboard-response","270","2.0.0","724758","2009","<p>4 - 0 = ?</p>","4","4 - 0","4","true","","","",""
"","","","","","html-keyboard-response","271","2.0.0","727751","null","<p>4 - 0 = 4</p><p>Correct!</p>","null","","","","","","",""
"","","","","","html-keyboard-response","272","2.0.0","730372","2620","You will now watch a short video. Press any key to start."," ","","","","","","",""
"","","","","","video-keyboard-response","273","2.0.0","896625","null","[""video.mp4""]","null","","","","","","",""
"true","false","[]","[]","[]","preload","274","2.0.0","907082","","","","","","","","","",""
"","","","","","html-keyboard-response","275","2.0.0","921252","14168","Instructions for recognition test"," ","","","","","","",""
"","","","","","image-keyboard-response","276","2.0.0","961359","40106","./images/LM-210.jpg","1","","1","true","","./images/LM-210.jpg","",""
"","","","","","image-keyboard-response","277","2.0.0","964264","2904","./images/LF-213.jpg","1","","1","true","","./images/LF-213.jpg","",""
"","","","","","image-keyboard-response","278","2.0.0","965510","1245","./images/WM-200.jpg","2","","1","false","","./images/WM-200.jpg","",""
"","","","","","image-keyboard-response","279","2.0.0","967363","1852","./images/LF-243.jpg","1","","1","true","","./images/LF-243.jpg","",""
"","","","","","image-keyboard-response","280","2.0.0","968387","1024","./lure_images/LF-250.jpg","2","","2","true","","./lure_images/LF-250.jpg","",""
"","","","","","image-keyboard-response","281","2.0.0","972243","3855","./lure_images/LF-230.jpg","2","","2","true","","./lure_images/LF-230.jpg","",""
"","","","","","image-keyboard-response","282","2.0.0","973284","1041","./images/LM-243.jpg","1","","1","true","","./images/LM-243.jpg","",""
"","","","","","image-keyboard-response","283","2.0.0","974401","1116","./images/AF-244.jpg","1","","1","true","","./images/AF-244.jpg","",""
"","","","","","image-keyboard-response","284","2.0.0","975369","967","./lure_images/AF-206.jpg","2","","2","true","","./lure_images/AF-206.jpg","",""
"","","","","","image-keyboard-response","285","2.0.0","976357","987","./images/LF-251.jpg","1","","1","true","","./images/LF-251.jpg","",""
"","","","","","image-keyboard-response","286","2.0.0","977517","1159","./lure_images/AM-228.jpg","1","","2","false","","./lure_images/AM-228.jpg","",""
"","","","","","image-keyboard-response","287","2.0.0","978452","934","./images/AM-211.jpg","1","","1","true","","./images/AM-211.jpg","",""
"","","","","","image-keyboard-response","288","2.0.0","979386","934","./lure_images/WM-234.jpg","2","","2","true","","./lure_images/WM-234.jpg","",""
"","","","","","image-keyboard-response","289","2.0.0","980650","1263","./lure_images/LM-252.jpg","2","","2","true","","./lure_images/LM-252.jpg","",""
"","","","","","image-keyboard-response","290","2.0.0","982606","1956","./images/LM-239.jpg","2","","1","false","","./images/LM-239.jpg","",""
"","","","","","image-keyboard-response","291","2.0.0","983374","768","./lure_images/WF-218.jpg","2","","2","true","","./lure_images/WF-218.jpg","",""
"","","","","","image-keyboard-response","292","2.0.0","985134","1760","./images/WF-017.jpg","1","","1","true","","./images/WF-017.jpg","",""
"","","","","","image-keyboard-response","293","2.0.0","986235","1101","./images/LM-208.jpg","2","","1","false","","./images/LM-208.jpg","",""
"","","","","","image-keyboard-response","294","2.0.0","987214","978","./lure_images/AF-229.jpg","2","","2","true","","./lure_images/AF-229.jpg","",""
"","","","","","image-keyboard-response","295","2.0.0","988248","1033","./images/AM-202.jpg","1","","1","true","","./images/AM-202.jpg","",""
"","","","","","image-keyboard-response","296","2.0.0","989370","1122","./images/AF-255.jpg","1","","1","true","","./images/AF-255.jpg","",""
"","","","","","image-keyboard-response","297","2.0.0","990573","1202","./lure_images/WF-211.jpg","2","","2","true","","./lure_images/WF-211.jpg","",""
"","","","","","image-keyboard-response","298","2.0.0","991433","859","./images/LF-241.jpg","1","","1","true","","./images/LF-241.jpg","",""
"","","","","","image-keyboard-response","299","2.0.0","992502","1068","./lure_images/LM-214.jpg","2","","2","true","","./lure_images/LM-214.jpg","",""
"","","","","","image-keyboard-response","300","2.0.0","994053","1551","./lure_images/LM-244.jpg","1","","2","false","","./lure_images/LM-244.jpg","",""
"","","","","","image-keyboard-response","301","2.0.0","994958","904","./lure_images/LM-248.jpg","1","","2","false","","./lure_images/LM-248.jpg","",""
"","","","","","image-keyboard-response","302","2.0.0","995760","801","./lure_images/AM-204.jpg","2","","2","true","","./lure_images/AM-204.jpg","",""
"","","","","","image-keyboard-response","303","2.0.0","996802","1041","./images/WM-036.jpg","1","","1","true","","./images/WM-036.jpg","",""
"","","","","","image-keyboard-response","304","2.0.0","997826","1024","./images/WM-033.jpg","2","","1","false","","./images/WM-033.jpg","",""
"","","","","","image-keyboard-response","305","2.0.0","998800","973","./images/LF-247.jpg","2","","1","false","","./images/LF-247.jpg","",""
"","","","","","image-keyboard-response","306","2.0.0","1000089","1288","./lure_images/WF-213.jpg","2","","2","true","","./lure_images/WF-213.jpg","",""
"","","","","","image-keyboard-response","307","2.0.0","1000901","811","./lure_images/WM-034.jpg","2","","2","true","","./lure_images/WM-034.jpg","",""
"","","","","","image-keyboard-response","308","2.0.0","1001885","983","./lure_images/LF-239.jpg","2","","2","true","","./lure_images/LF-239.jpg","",""
"","","","","","image-keyboard-response","309","2.0.0","1002929","1043","./images/AF-225.jpg","2","","1","false","","./images/AF-225.jpg","",""
"","","","","","image-keyboard-response","310","2.0.0","1003923","993","./images/WM-208.jpg","1","","1","true","","./images/WM-208.jpg","",""
"","","","","","image-keyboard-response","311","2.0.0","1004759","836","./lure_images/AM-210.jpg","1","","2","false","","./lure_images/AM-210.jpg","",""
"","","","","","image-keyboard-response","312","2.0.0","1005595","836","./lure_images/WF-202.jpg","2","","2","true","","./lure_images/WF-202.jpg","",""
"","","","","","image-keyboard-response","313","2.0.0","1006802","1206","./lure_images/AF-221.jpg","2","","2","true","","./lure_images/AF-221.jpg","",""
"","","","","","image-keyboard-response","314","2.0.0","1008225","1423","./images/AM-237.jpg","2","","1","false","","./images/AM-237.jpg","",""
"","","","","","image-keyboard-response","315","2.0.0","1009079","853","./lure_images/AM-216.jpg","1","","2","false","","./lure_images/AM-216.jpg","",""
"","","","","","image-keyboard-response","316","2.0.0","1009918","838","./lure_images/AF-218.jpg","1","","2","false","","./lure_images/AF-218.jpg","",""
"","","","","","image-keyboard-response","317","2.0.0","1010633","715","./images/AM-231.jpg","1","","1","true","","./images/AM-231.jpg","",""
"","","","","","image-keyboard-response","318","2.0.0","1011581","947","./images/LM-207.jpg","1","","1","true","","./images/LM-207.jpg","",""
"","","","","","image-keyboard-response","319","2.0.0","1012607","1025","./lure_images/LM-224.jpg","2","","2","true","","./lure_images/LM-224.jpg","",""
"","","","","","image-keyboard-response","320","2.0.0","1014033","1425","./lure_images/WM-207.jpg","2","","2","true","","./lure_images/WM-207.jpg","",""
"","","","","","image-keyboard-response","321","2.0.0","1015292","1258","./images/AF-228.jpg","2","","1","false","","./images/AF-228.jpg","",""
"","","","","","image-keyboard-response","322","2.0.0","1016781","1489","./images/AM-229.jpg","2","","1","false","","./images/AM-229.jpg","",""
"","","","","","image-keyboard-response","323","2.0.0","1017672","890","./lure_images/AM-243.jpg","1","","2","false","","./lure_images/AM-243.jpg","",""
"","","","","","image-keyboard-response","324","2.0.0","1018482","809","./lure_images/WF-011.jpg","2","","2","true","","./lure_images/WF-011.jpg","",""
"","","","","","image-keyboard-response","325","2.0.0","1019628","1145","./images/LM-241.jpg","1","","1","true","","./images/LM-241.jpg","",""
"","","","","","image-keyboard-response","326","2.0.0","1020592","963","./lure_images/AF-211.jpg","2","","2","true","","./lure_images/AF-211.jpg","",""
"","","","","","image-keyboard-response","327","2.0.0","1021405","813","./images/AF-226.jpg","1","","1","true","","./images/AF-226.jpg","",""
"","","","","","image-keyboard-response","328","2.0.0","1022298","892","./images/AF-252.jpg","1","","1","true","","./images/AF-252.jpg","",""
"","","","","","image-keyboard-response","329","2.0.0","1024249","1950","./lure_images/WM-214.jpg","2","","2","true","","./lure_images/WM-214.jpg","",""
"","","","","","image-keyboard-response","330","2.0.0","1026071","1821","./images/WF-235.jpg","2","","1","false","","./images/WF-235.jpg","",""
"","","","","","image-keyboard-response","331","2.0.0","1027620","1549","./images/WF-206.jpg","1","","1","true","","./images/WF-206.jpg","",""
"","","","","","image-keyboard-response","332","2.0.0","1028805","1184","./lure_images/LF-221.jpg","2","","2","true","","./lure_images/LF-221.jpg","",""
"","","","","","image-keyboard-response","333","2.0.0","1029732","925","./images/LM-223.jpg","1","","1","true","","./images/LM-223.jpg","",""
"","","","","","image-keyboard-response","334","2.0.0","1030528","795","./images/WM-009.jpg","1","","1","true","","./images/WM-009.jpg","",""
"","","","","","image-keyboard-response","335","2.0.0","1031380","851","./images/WF-207.jpg","2","","1","false","","./images/WF-207.jpg","",""
"","","","","","image-keyboard-response","336","2.0.0","1033646","2265","./lure_images/AF-235.jpg","2","","2","true","","./lure_images/AF-235.jpg","",""
"","","","","","image-keyboard-response","337","2.0.0","1034502","855","./lure_images/WM-250.jpg","2","","2","true","","./lure_images/WM-250.jpg","",""
"","","","","","image-keyboard-response","338","2.0.0","1035185","683","./lure_images/WF-243.jpg","2","","2","true","","./lure_images/WF-243.jpg","",""
"","","","","","image-keyboard-response","339","2.0.0","1036121","935","./images/AF-205.jpg","2","","1","false","","./images/AF-205.jpg","",""
"","","","","","image-keyboard-response","340","2.0.0","1036848","726","./lure_images/AF-208.jpg","2","","2","true","","./lure_images/AF-208.jpg","",""
"","","","","","image-keyboard-response","341","2.0.0","1037997","1149","./lure_images/LF-228.jpg","1","","2","false","","./lure_images/LF-228.jpg","",""
"","","","","","image-keyboard-response","342","2.0.0","1038839","841","./lure_images/WF-212.jpg","2","","2","true","","./lure_images/WF-212.jpg","",""
"","","","","","image-keyboard-response","343","2.0.0","1039990","1150","./images/WF-233.jpg","1","","1","true","","./images/WF-233.jpg","",""
"","","","","","image-keyboard-response","344","2.0.0","1040817","826","./lure_images/LM-212.jpg","2","","2","true","","./lure_images/LM-212.jpg","",""
"","","","","","image-keyboard-response","345","2.0.0","1041805","987","./images/WF-244.jpg","2","","1","false","","./images/WF-244.jpg","",""
"","","","","","image-keyboard-response","346","2.0.0","1043234","1428","./lure_images/WM-032.jpg","1","","2","false","","./lure_images/WM-032.jpg","",""
"","","","","","image-keyboard-response","347","2.0.0","1044124","889","./images/AM-201.jpg","1","","1","true","","./images/AM-201.jpg","",""
"","","","","","image-keyboard-response","348","2.0.0","1045578","1453","./images/LF-211.jpg","2","","1","false","","./images/LF-211.jpg","",""
"","","","","","image-keyboard-response","349","2.0.0","1048037","2458","./lure_images/LF-223.jpg","2","","2","true","","./lure_images/LF-223.jpg","",""
"","","","","","image-keyboard-response","350","2.0.0","1049055","1018","./lure_images/AM-250.jpg","2","","2","true","","./lure_images/AM-250.jpg","",""
"","","","","","image-keyboard-response","351","2.0.0","1050049","993","./images/WM-209.jpg","1","","1","true","","./images/WM-209.jpg","",""
"","","","","","image-keyboard-response","352","2.0.0","1051057","1007","./images/AF-219.jpg","2","","1","false","","./images/AF-219.jpg","",""
"","","","","","image-keyboard-response","353","2.0.0","1052304","1246","./lure_images/WF-231.jpg","2","","2","true","","./lure_images/WF-231.jpg","",""
"","","","","","image-keyboard-response","354","2.0.0","1053158","853","./images/WM-004.jpg","1","","1","true","","./images/WM-004.jpg","",""
"","","","","","image-keyboard-response","355","2.0.0","1054141","982","./images/LF-212.jpg","1","","1","true","","./images/LF-212.jpg","",""
"","","","","","image-keyboard-response","356","2.0.0","1055130","988","./lure_images/WM-015.jpg","1","","2","false","","./lure_images/WM-015.jpg","",""
"","","","","","image-keyboard-response","357","2.0.0","1056273","1142","./lure_images/AM-253.jpg","1","","2","false","","./lure_images/AM-253.jpg","",""
"","","","","","image-keyboard-response","358","2.0.0","1057748","1474","./images/LM-231.jpg","2","","1","false","","./images/LM-231.jpg","",""
"","","","","","image-keyboard-response","359","2.0.0","1059239","1490","./images/AM-221.jpg","1","","1","true","","./images/AM-221.jpg","",""
"","","","","","image-keyboard-response","360","2.0.0","1061709","2469","./lure_images/LM-216.jpg","1","","2","false","","./lure_images/LM-216.jpg","",""
"","","","","","image-keyboard-response","361","2.0.0","1062552","843","./images/AM-207.jpg","1","","1","true","","./images/AM-207.jpg","",""
"","","","","","image-keyboard-response","362","2.0.0","1063746","1193","./lure_images/LM-247.jpg","2","","2","true","","./lure_images/LM-247.jpg","",""
"","","","","","image-keyboard-response","363","2.0.0","1064991","1245","./images/LF-201.jpg","1","","1","true","","./images/LF-201.jpg","",""
"","","","","","image-keyboard-response","364","2.0.0","1066959","1967","./images/WF-214.jpg","2","","1","false","","./images/WF-214.jpg","",""
"","","","","","image-keyboard-response","365","2.0.0","1067963","1003","./lure_images/LF-216.jpg","2","","2","true","","./lure_images/LF-216.jpg","",""
"","","","","","image-keyboard-response","366","2.0.0","1069382","1419","./lure_images/AF-214.jpg","2","","2","true","","./lure_images/AF-214.jpg","",""
"","","","","","image-keyboard-response","367","2.0.0","1070137","754","./images/LF-209.jpg","2","","1","false","","./images/LF-209.jpg","",""
"","","","","","image-keyboard-response","368","2.0.0","1070888","750","./images/WM-040.jpg","2","","1","false","","./images/WM-040.jpg","",""
"","","","","","image-keyboard-response","369","2.0.0","1071682","793","./lure_images/LF-215.jpg","2","","2","true","","./lure_images/LF-215.jpg","",""
"","","","","","image-keyboard-response","370","2.0.0","1072615","932","./images/WF-007.jpg","2","","1","false","","./images/WF-007.jpg","",""
"","","","","","image-keyboard-response","371","2.0.0","1073442","826","./lure_images/AM-238.jpg","1","","2","false","","./lure_images/AM-238.jpg","",""
"","","","","","image-keyboard-response","372","2.0.0","1074339","897","./images/LM-200.jpg","2","","1","false","","./images/LM-200.jpg","",""
"","","","","","image-keyboard-response","373","2.0.0","1075603","1263","./images/WM-031.jpg","1","","1","true","","./images/WM-031.jpg","",""
"","","","","","image-keyboard-response","374","2.0.0","1076767","1164","./lure_images/WF-230.jpg","2","","2","true","","./lure_images/WF-230.jpg","",""
"","","","","","image-keyboard-response","375","2.0.0","1078094","1326","./images/AF-227.jpg","2","","1","false","","./images/AF-227.jpg","",""
"","","","","","image-keyboard-response","376","2.0.0","1081448","3353","./lure_images/WM-237.jpg","2","","2","true","","./lure_images/WM-237.jpg","",""
"","","","","","image-keyboard-response","377","2.0.0","1084354","2905","./lure_images/AF-247.jpg","2","","2","true","","./lure_images/AF-247.jpg","",""
"","","","","","image-keyboard-response","378","2.0.0","1085349","994","./images/AM-252.jpg","1","","1","true","","./images/AM-252.jpg","",""
"","","","","","image-keyboard-response","379","2.0.0","1087000","1650","./lure_images/WM-231.jpg","2","","2","true","","./lure_images/WM-231.jpg","",""
"","","","","","image-keyboard-response","380","2.0.0","1088759","1758","./lure_images/AM-225.jpg","2","","2","true","","./lure_images/AM-225.jpg","",""
"","","","","","image-keyboard-response","381","2.0.0","1089692","933","./lure_images/LM-242.jpg","2","","2","true","","./lure_images/LM-242.jpg","",""
"","","","","","image-keyboard-response","382","2.0.0","1090691","999","./lure_images/LF-202.jpg","2","","2","true","","./lure_images/LF-202.jpg","",""
"","","","","","image-keyboard-response","383","2.0.0","1092269","1577","./images/WF-027.jpg","2","","1","false","","./images/WF-027.jpg","",""
"","","","","","html-keyboard-response","384","2.0.0","1095039","2769","Instructions for recall test"," ","","","","","","",""
"","","","","","html-keyboard-response","385","2.0.0","1096042","null","What's their name?","null","","","","","","",""
"","","","","","image-keyboard-response","386","2.0.0","1102136","6092","./images/AM-231.jpg","1","","1","true","","./images/AM-231.jpg","","[""Jack"",""Joseph"",""Luke"",""Nathan"",""Alexander""]"
"","","","","","html-keyboard-response","387","2.0.0","1103137","null","What's their name?","null","","","","","","",""
"","","","","","image-keyboard-response","388","2.0.0","1107456","4318","./images/LM-243.jpg","3","","2","false","","./images/LM-243.jpg","","[""Austin"",""Robert"",""Jackson"",""Angel"",""Caleb""]"
"","","","","","html-keyboard-response","389","2.0.0","1108459","null","What's their name?","null","","","","","","",""
"","","","","","image-keyboard-response","390","2.0.0","1111889","3429","./images/WM-040.jpg","3","","2","false","","./images/WM-040.jpg","","[""Robert"",""Brandon"",""Ethan"",""Jonathan"",""Samuel""]"
"","","","","","html-keyboard-response","391","2.0.0","1112890","null","What's their name?","null","","","","","","",""
"","","","","","image-keyboard-response","392","2.0.0","1120476","7585","./images/AF-205.jpg","5","","3","false","","./images/AF-205.jpg","","[""Abigail"",""Stephanie"",""Haley"",""Lillian"",""Megan""]"
"","","","","","html-keyboard-response","393","2.0.0","1121479","null","What's their name?","null","","","","","","",""
"","","","","","image-keyboard-response","394","2.0.0","1124096","2616","./images/LF-213.jpg","2","","1","false","","./images/LF-213.jpg","","[""Savannah"",""Maria"",""Kayla"",""Isabella"",""Savannah""]"
"","","","","","html-keyboard-response","395","2.0.0","1125097","null","What's their name?","null","","","","","","",""
"","","","","","image-keyboard-response","396","2.0.0","1130386","5288","./images/WF-214.jpg","5","","2","false","","./images/WF-214.jpg","","[""Katherine"",""Megan"",""Emily"",""Samantha"",""Sydney""]"
"","","","","","html-keyboard-response","397","2.0.0","1131389","null","What's their name?","null","","","","","","",""
"","","","","","image-keyboard-response","398","2.0.0","1134300","2910","./images/AM-201.jpg","5","","2","false","","./images/AM-201.jpg","","[""Joseph"",""Alexander"",""Jack"",""Luke"",""Gavin""]"
"","","","","","html-keyboard-response","399","2.0.0","1135303","null","What's their name?","null","","","","","","",""
"","","","","","image-keyboard-response","400","2.0.0","1138133","2828","./images/LM-241.jpg","5","","2","false","","./images/LM-241.jpg","","[""Angel"",""Jason"",""Jackson"",""Austin"",""Caleb""]"
"","","","","","html-keyboard-response","401","2.0.0","1139135","null","What's their name?","null","","","","","","",""
"","","","","","image-keyboard-response","402","2.0.0","1142267","3131","./images/WM-200.jpg","4","","4","true","","./images/WM-200.jpg","","[""Samuel"",""Mason"",""Robert"",""Ryan"",""Jonathan""]"
"","","","","","html-keyboard-response","403","2.0.0","1143269","null","What's their name?","null","","","","","","",""
"","","","","","image-keyboard-response","404","2.0.0","1146523","3252","./images/AF-219.jpg","2","","3","false","","./images/AF-219.jpg","","[""Emily"",""Haley"",""Emma"",""Abigail"",""Stephanie""]"
"","","","","","html-keyboard-response","405","2.0.0","1147525","null","What's their name?","null","","","","","","",""
"","","","","","image-keyboard-response","406","2.0.0","1151152","3626","./images/LF-212.jpg","3","","1","false","","./images/LF-212.jpg","","[""Sarah"",""Isabella"",""Savannah"",""Savannah"",""Lily""]"
"","","","","","html-keyboard-response","407","2.0.0","1152155","null","What's their name?","null","","","","","","",""
"","","","","","image-keyboard-response","408","2.0.0","1155744","3588","./images/WF-007.jpg","4","","4","true","","./images/WF-007.jpg","","[""Sydney"",""Mia"",""Megan"",""Emily"",""Katherine""]"
"","","","","","html-keyboard-response","409","2.0.0","1156747","null","What's their name?","null","","","","","","",""
"","","","","","image-keyboard-response","410","2.0.0","1158689","1940","./images/AM-207.jpg","1","","4","false","","./images/AM-207.jpg","","[""Nathan"",""Joseph"",""Luke"",""Mason"",""Jack""]"
"","","","","","html-keyboard-response","411","2.0.0","1159692","null","What's their name?","null","","","","","","",""
"","","","","","image-keyboard-response","412","2.0.0","1161651","1958","./images/WM-033.jpg","2","","4","false","","./images/WM-033.jpg","","[""Robert"",""Mason"",""Brandon"",""Jonathan"",""Samuel""]"
"","","","","","html-keyboard-response","413","2.0.0","1162653","null","What's their name?","null","","","","","","",""
"","","","","","image-keyboard-response","414","2.0.0","1165483","2829","./images/LM-210.jpg","5","","4","false","","./images/LM-210.jpg","","[""Austin"",""Jack"",""Jason"",""Caleb"",""Angel""]"
"","","","","","html-keyboard-response","415","2.0.0","1166485","null","What's their name?","null","","","","","","",""
"","","","","","image-keyboard-response","416","2.0.0","1170887","4401","./images/AF-228.jpg","2","","2","true","","./images/AF-228.jpg","","[""Emma"",""Lillian"",""Stephanie"",""Abigail"",""Megan""]"
"","","","","","html-keyboard-response","417","2.0.0","1171889","null","What's their name?","null","","","","","","",""
"","","","","","image-keyboard-response","418","2.0.0","1175995","4104","./images/LF-247.jpg","1","","5","false","","./images/LF-247.jpg","","[""Isabella"",""Elizabeth"",""Savannah"",""Sarah"",""Kayla""]"
"","","","","","html-keyboard-response","419","2.0.0","1176996","null","What's their name?","null","","","","","","",""
"","","","","","image-keyboard-response","420","2.0.0","1179358","2360","./images/WF-235.jpg","4","","5","false","","./images/WF-235.jpg","","[""Sydney"",""Emily"",""Katherine"",""Kaylee"",""Grace""]"
"","","","","","html-keyboard-response","421","2.0.0","1180360","null","What's their name?","null","","","","","","",""
"","","","","","image-keyboard-response","422","2.0.0","1183992","3631","./images/AM-237.jpg","4","","2","false","","./images/AM-237.jpg","","[""Angel"",""Luke"",""Mason"",""Alexander"",""Gavin""]"
"","","","","","html-keyboard-response","423","2.0.0","1184994","null","What's their name?","null","","","","","","",""
"","","","","","image-keyboard-response","424","2.0.0","1188387","3391","./images/LM-239.jpg","3","","1","false","","./images/LM-239.jpg","","[""Angel"",""Jack"",""William"",""Caleb"",""Luke""]"
"","","","","","html-keyboard-response","425","2.0.0","1189390","null","What's their name?","null","","","","","","",""
"","","","","","image-keyboard-response","426","2.0.0","1191621","2230","./images/WM-031.jpg","3","","2","false","","./images/WM-031.jpg","","[""Jackson"",""Robert"",""Ryan"",""Andrew"",""Angel""]"
"","","","","","html-keyboard-response","427","2.0.0","1192624","null","What's their name?","null","","","","","","",""
"","","","","","image-keyboard-response","428","2.0.0","1196196","3571","./images/AF-255.jpg","2","","1","false","","./images/AF-255.jpg","","[""Abigail"",""Destiny"",""Megan"",""Emma"",""Isabella""]"
"","","","","","html-keyboard-response","429","2.0.0","1197198","null","What's their name?","null","","","","","","",""
"","","","","","image-keyboard-response","430","2.0.0","1201531","4332","./images/LF-251.jpg","1","","4","false","","./images/LF-251.jpg","","[""Katherine"",""Savannah"",""Elizabeth"",""Isabella"",""Isabella""]"
"","","","","","html-keyboard-response","431","2.0.0","1202533","null","What's their name?","null","","","","","","",""
"","","","","","image-keyboard-response","432","2.0.0","1204952","2418","./images/WF-233.jpg","4","","2","false","","./images/WF-233.jpg","","[""Isabella"",""Katherine"",""Emily"",""Mia"",""Allison""]"
"","","","","","html-keyboard-response","433","2.0.0","1205955","null","What's their name?","null","","","","","","",""
"","","","","","image-keyboard-response","434","2.0.0","1209105","3149","./images/AM-252.jpg","5","","4","false","","./images/AM-252.jpg","","[""Alexander"",""William"",""Joseph"",""Gavin"",""Luke""]"
"","","","","","html-keyboard-response","435","2.0.0","1210108","null","What's their name?","null","","","","","","",""
"","","","","","image-keyboard-response","436","2.0.0","1212505","2397","./images/LM-231.jpg","4","","1","false","","./images/LM-231.jpg","","[""William"",""Angel"",""Gavin"",""Jack"",""Caleb""]"
"","","","","","html-keyboard-response","437","2.0.0","1213508","null","What's their name?","null","","","","","","",""
"","","","","","image-keyboard-response","438","2.0.0","1216957","3448","./images/WM-036.jpg","2","","5","false","","./images/WM-036.jpg","","[""William"",""Samuel"",""Jackson"",""Robert"",""Andrew""]"
"","","","","","html-keyboard-response","439","2.0.0","1217959","null","What's their name?","null","","","","","","",""
"","","","","","image-keyboard-response","440","2.0.0","1221209","3249","./images/AF-226.jpg","1","","1","true","","./images/AF-226.jpg","","[""Megan"",""Destiny"",""Abigail"",""Stephanie"",""Allison""]"
"","","","","","html-keyboard-response","441","2.0.0","1222211","null","What's their name?","null","","","","","","",""
"","","","","","image-keyboard-response","442","2.0.0","1223550","1338","./images/LF-201.jpg","2","","2","true","","./images/LF-201.jpg","","[""Isabella"",""Elizabeth"",""Savannah"",""Isabella"",""Megan""]"
"","","","","","html-keyboard-response","443","2.0.0","1224553","null","What's their name?","null","","","","","","",""
"","","","","","image-keyboard-response","444","2.0.0","1229208","4654","./images/WF-027.jpg","2","","2","true","","./images/WF-027.jpg","","[""Mia"",""Allison"",""Emily"",""Katherine"",""Elizabeth""]"
"","","","","","html-keyboard-response","445","2.0.0","1230210","null","What's their name?","null","","","","","","",""
"","","","","","image-keyboard-response","446","2.0.0","1233001","2790","./images/AM-211.jpg","5","","5","true","","./images/AM-211.jpg","","[""Luke"",""Joseph"",""Gavin"",""Caleb"",""Nathan""]"
"","","","","","html-keyboard-response","447","2.0.0","1234004","null","What's their name?","null","","","","","","",""
"","","","","","image-keyboard-response","448","2.0.0","1236971","2966","./images/LM-208.jpg","5","","2","false","","./images/LM-208.jpg","","[""Ethan"",""Caleb"",""Austin"",""William"",""Jack""]"
"","","","","","html-keyboard-response","449","2.0.0","1237974","null","What's their name?","null","","","","","","",""
"","","","","","image-keyboard-response","450","2.0.0","1241037","3062","./images/WM-209.jpg","4","","2","false","","./images/WM-209.jpg","","[""Ryan"",""Ethan"",""Samuel"",""Nathan"",""Andrew""]"
"","","","","","html-keyboard-response","451","2.0.0","1242039","null","What's their name?","null","","","","","","",""
"","","","","","image-keyboard-response","452","2.0.0","1246664","4624","./images/AF-227.jpg","4","","2","false","","./images/AF-227.jpg","","[""Stephanie"",""Alexis"",""Kaylee"",""Megan"",""Stephanie""]"
"","","","","","html-keyboard-response","453","2.0.0","1247667","null","What's their name?","null","","","","","","",""
"","","","","","image-keyboard-response","454","2.0.0","1252007","4338","./images/LF-243.jpg","4","","2","false","","./images/LF-243.jpg","","[""Elizabeth"",""Lily"",""Alexis"",""Savannah"",""Kayla""]"
"","","","","","html-keyboard-response","455","2.0.0","1253008","null","What's their name?","null","","","","","","",""
"","","","","","image-keyboard-response","456","2.0.0","1257400","4391","./images/WF-017.jpg","2","","4","false","","./images/WF-017.jpg","","[""Sydney"",""Mia"",""Lily"",""Kaylee"",""Allison""]"
"","","","","","html-keyboard-response","457","2.0.0","1258403","null","What's their name?","null","","","","","","",""
"","","","","","image-keyboard-response","458","2.0.0","1261675","3271","./images/AM-202.jpg","4","","5","false","","./images/AM-202.jpg","","[""Jack"",""Alexander"",""Jackson"",""Joseph"",""Luke""]"
"","","","","","html-keyboard-response","459","2.0.0","1262677","null","What's their name?","null","","","","","","",""
"","","","","","image-keyboard-response","460","2.0.0","1266887","4209","./images/LM-200.jpg","4","","5","false","","./images/LM-200.jpg","","[""Jack"",""Mason"",""Austin"",""Jason"",""Jackson""]"
"","","","","","html-keyboard-response","461","2.0.0","1267890","null","What's their name?","null","","","","","","",""
"","","","","","image-keyboard-response","462","2.0.0","1270465","2574","./images/WM-208.jpg","5","","2","false","","./images/WM-208.jpg","","[""Jackson"",""Mason"",""Samuel"",""Luke"",""Brandon""]"
"","","","","","html-keyboard-response","463","2.0.0","1271468","null","What's their name?","null","","","","","","",""
"","","","","","image-keyboard-response","464","2.0.0","1275031","3562","./images/AF-244.jpg","3","","3","true","","./images/AF-244.jpg","","[""Stephanie"",""Alexis"",""Emily"",""Destiny"",""Maria""]"
"","","","","","html-keyboard-response","465","2.0.0","1276033","null","What's their name?","null","","","","","","",""
"","","","","","image-keyboard-response","466","2.0.0","1277750","1716","./images/LF-241.jpg","1","","1","true","","./images/LF-241.jpg","","[""Maria"",""Savannah"",""Isabella"",""Emily"",""Elizabeth""]"
"","","","","","html-keyboard-response","467","2.0.0","1278752","null","What's their name?","null","","","","","","",""
"","","","","","image-keyboard-response","468","2.0.0","1282376","3623","./images/WF-244.jpg","5","","1","false","","./images/WF-244.jpg","","[""Samantha"",""Sydney"",""Emily"",""Mia"",""Kaylee""]"
"","","","","","html-keyboard-response","469","2.0.0","1283378","null","What's their name?","null","","","","","","",""
"","","","","","image-keyboard-response","470","2.0.0","1289028","5649","./images/AM-229.jpg","4","","1","false","","./images/AM-229.jpg","","[""Alexander"",""Alexander"",""Joseph"",""Luke"",""Jackson""]"
"","","","","","html-keyboard-response","471","2.0.0","1290031","null","What's their name?","null","","","","","","",""
"","","","","","image-keyboard-response","472","2.0.0","1294613","4580","./images/LM-207.jpg","4","","3","false","","./images/LM-207.jpg","","[""Jackson"",""Alexander"",""Jack"",""Austin"",""Angel""]"
"","","","","","html-keyboard-response","473","2.0.0","1295615","null","What's their name?","null","","","","","","",""
"","","","","","image-keyboard-response","474","2.0.0","1298474","2858","./images/WM-009.jpg","2","","1","false","","./images/WM-009.jpg","","[""Jackson"",""Mason"",""Brandon"",""Samuel"",""Alexander""]"
"","","","","","html-keyboard-response","475","2.0.0","1299477","null","What's their name?","null","","","","","","",""
"","","","","","image-keyboard-response","476","2.0.0","1302185","2707","./images/AF-225.jpg","1","","3","false","","./images/AF-225.jpg","","[""Abigail"",""Emily"",""Destiny"",""Stephanie"",""Mia""]"
"","","","","","html-keyboard-response","477","2.0.0","1303188","null","What's their name?","null","","","","","","",""
"","","","","","image-keyboard-response","478","2.0.0","1307406","4217","./images/LF-211.jpg","4","","4","true","","./images/LF-211.jpg","","[""Maria"",""Savannah"",""Savannah"",""Isabella"",""Destiny""]"
"","","","","","html-keyboard-response","479","2.0.0","1308406","null","What's their name?","null","","","","","","",""
"","","","","","image-keyboard-response","480","2.0.0","1313396","4989","./images/WF-207.jpg","1","","5","false","","./images/WF-207.jpg","","[""Destiny"",""Sydney"",""Megan"",""Samantha"",""Mia""]"
"","","","","","html-keyboard-response","481","2.0.0","1314399","null","What's their name?","null","","","","","","",""
"","","","","","image-keyboard-response","482","2.0.0","1316791","2391","./images/AM-221.jpg","3","","1","false","","./images/AM-221.jpg","","[""Joseph"",""Austin"",""Luke"",""Alexander"",""Jack""]"
"","","","","","html-keyboard-response","483","2.0.0","1317793","null","What's their name?","null","","","","","","",""
"","","","","","image-keyboard-response","484","2.0.0","1321739","3946","./images/LM-223.jpg","3","","2","false","","./images/LM-223.jpg","","[""Robert"",""Austin"",""Jackson"",""Jack"",""Joseph""]"
"","","","","","html-keyboard-response","485","2.0.0","1322742","null","What's their name?","null","","","","","","",""
"","","","","","image-keyboard-response","486","2.0.0","1325966","3223","./images/WM-004.jpg","1","","4","false","","./images/WM-004.jpg","","[""Jonathan"",""Mason"",""Jackson"",""Samuel"",""Austin""]"
"","","","","","html-keyboard-response","487","2.0.0","1326968","null","What's their name?","null","","","","","","",""
"","","","","","image-keyboard-response","488","2.0.0","1331385","4415","./images/AF-252.jpg","2","","3","false","","./images/AF-252.jpg","","[""Destiny"",""Sydney"",""Stephanie"",""Alexis"",""Emily""]"
"","","","","","html-keyboard-response","489","2.0.0","1332387","null","What's their name?","null","","","","","","",""
"","","","","","image-keyboard-response","490","2.0.0","1338115","5727","./images/LF-209.jpg","4","","1","false","","./images/LF-209.jpg","","[""Savannah"",""Sydney"",""Isabella"",""Sarah"",""Maria""]"
"","","","","","html-keyboard-response","491","2.0.0","1339117","null","What's their name?","null","","","","","","",""
"","","","","","image-keyboard-response","492","2.0.0","1342607","3489","./images/WF-206.jpg","2","","3","false","","./images/WF-206.jpg","","[""Mia"",""Stephanie"",""Sydney"",""Samantha"",""Allison""]"
